submission_id,RT,age,colors,comments,consonant_series,correctness,digit_series,education,endTime,expected_keys,experiment_id,gender,languages,recall,recall_time,response,startDate,startTime,task_type,timeSpent,trial_number,trial_type
1982,|||||||||||||||||||||||,22,red|red|red|red|red|red|red|red|red|red|red|red|red|red|red|red|red|red|red|red|red|red|red|red,,N|Z|L,true|true|true,4|3|9|6|2|6|7|6|7|8|1|3|8|4|7|9|1|3|7|3|6|9|1|4,Universitärer Abschluss,1596031677915,ArrowLeft|ArrowLeft|ArrowRight|ArrowRight|ArrowLeft|ArrowRight|ArrowRight|ArrowRight|ArrowRight|ArrowRight|ArrowLeft|ArrowLeft|ArrowRight|ArrowLeft|ArrowRight|ArrowRight|ArrowLeft|ArrowLeft|ArrowRight|ArrowLeft|ArrowRight|ArrowRight|ArrowLeft|ArrowLeft,168,männlich,Deutsch,NZL,8092,|||||||||||||||||||||||,Wed Jul 29 2020 15:57:57 GMT+0200 (CEST),1596031077137,magnitude,10.012966666666667,0,first_practice
1982,,22,red|red|red|red|red|red|red|red,,L,,8|9|8|9|7|1|6|4,Universitärer Abschluss,1596031677915,ArrowRight|ArrowRight|ArrowRight|ArrowRight|ArrowRight|ArrowLeft|ArrowRight|ArrowLeft,168,männlich,Deutsch,,,,Wed Jul 29 2020 15:57:57 GMT+0200 (CEST),1596031077137,magnitude,10.012966666666667,0,second_practice
1982,,22,blue|blue|blue|blue|blue|blue|blue|blue,,Q,,9|2|6|4|6|2|7|2,Universitärer Abschluss,1596031677915,ArrowLeft|ArrowRight|ArrowRight|ArrowRight|ArrowRight|ArrowRight|ArrowLeft|ArrowRight,168,männlich,Deutsch,,,,Wed Jul 29 2020 15:57:57 GMT+0200 (CEST),1596031077137,parity,10.012966666666667,1,second_practice
1982,,22,blue|blue|blue|red|blue|red|blue|red,,G,,9|3|7|4|7|4|6|4,Universitärer Abschluss,1596031677915,ArrowLeft|ArrowLeft|ArrowLeft|ArrowLeft|ArrowLeft|ArrowLeft|ArrowRight|ArrowLeft,168,männlich,Deutsch,,,,Wed Jul 29 2020 15:57:57 GMT+0200 (CEST),1596031077137,mixed,10.012966666666667,2,second_practice
1982,546|564|273|283|226|306|261|114|390|216|171|384|317|497|542||886|496|430|663|429|350|350|430,22,red|blue|blue|blue|red|red|red|red|blue|blue|blue|red|red|blue|blue|blue|red|red|blue|blue|blue|red|red|blue,,M|R|L,true|true|true,2|4|9|2|6|1|9|8|1|4|8|2|8|9|7|8|4|1|8|6|9|3|7|9,Universitärer Abschluss,1596031677915,ArrowLeft|ArrowRight|ArrowLeft|ArrowRight|ArrowRight|ArrowLeft|ArrowRight|ArrowRight|ArrowLeft|ArrowRight|ArrowRight|ArrowLeft|ArrowRight|ArrowLeft|ArrowLeft|ArrowRight|ArrowLeft|ArrowLeft|ArrowRight|ArrowRight|ArrowLeft|ArrowLeft|ArrowRight|ArrowLeft,168,männlich,Deutsch,MRL,4524,ArrowLeft|ArrowRight|ArrowLeft|ArrowRight|ArrowLeft|ArrowRight|ArrowLeft|ArrowRight|ArrowLeft|ArrowRight|ArrowLeft|ArrowLeft|ArrowLeft|ArrowRight|ArrowRight||ArrowLeft|ArrowLeft|ArrowRight|ArrowRight|ArrowLeft|ArrowRight|ArrowLeft|ArrowRight,Wed Jul 29 2020 15:57:57 GMT+0200 (CEST),1596031077137,mixed,10.012966666666667,0,third_practice
1982,796|||||747|823|463|504|396|194|81|137|14|159|47|7|14|69|115|35|25|294|293|323|261|250|24|2|306|250|249|446|295|295|383|203|126|329|261|||696|385|441|137|159|362,22,blue|red|blue|blue|blue|blue|blue|blue|blue|red|blue|red|blue|red|blue|blue|red|red|red|red|blue|red|blue|red|red|blue|red|blue|red|blue|red|red|blue|red|red|red|blue|blue|blue|blue|blue|blue|blue|red|red|red|blue|blue,,Y|X|R|G|H|Q,false|true|true|false|false|false,9|3|7|9|7|9|6|7|6|8|2|9|7|1|4|2|2|4|2|8|9|2|6|9|2|7|4|9|1|7|6|3|1|3|8|6|3|1|3|9|2|4|9|6|9|2|6|1,Universitärer Abschluss,1596031677915,ArrowLeft|ArrowLeft|ArrowLeft|ArrowLeft|ArrowLeft|ArrowLeft|ArrowRight|ArrowLeft|ArrowRight|ArrowRight|ArrowRight|ArrowRight|ArrowLeft|ArrowLeft|ArrowRight|ArrowRight|ArrowLeft|ArrowLeft|ArrowLeft|ArrowRight|ArrowLeft|ArrowLeft|ArrowRight|ArrowRight|ArrowLeft|ArrowLeft|ArrowLeft|ArrowLeft|ArrowLeft|ArrowLeft|ArrowRight|ArrowLeft|ArrowLeft|ArrowLeft|ArrowRight|ArrowRight|ArrowLeft|ArrowLeft|ArrowLeft|ArrowLeft|ArrowRight|ArrowRight|ArrowLeft|ArrowRight|ArrowRight|ArrowLeft|ArrowRight|ArrowLeft,168,männlich,Deutsch,MXRHQ?,11059,ArrowRight|||||ArrowLeft|ArrowRight|ArrowLeft|ArrowLeft|ArrowRight|ArrowLeft|ArrowRight|ArrowRight|ArrowRight|ArrowLeft|ArrowLeft|ArrowRight|ArrowRight|ArrowRight|ArrowLeft|ArrowLeft|ArrowLeft|ArrowRight|ArrowRight|ArrowRight|ArrowLeft|ArrowRight|ArrowLeft|ArrowLeft|ArrowRight|ArrowLeft|ArrowLeft|ArrowRight|ArrowRight|ArrowLeft|ArrowRight|ArrowLeft|ArrowRight|ArrowRight|ArrowLeft|||ArrowRight|ArrowRight|ArrowLeft|ArrowRight|ArrowLeft|ArrowRight,Wed Jul 29 2020 15:57:57 GMT+0200 (CEST),1596031077137,mixed,10.012966666666667,0,main_experiment
1982,|571|171|58|36|475|340|183|186|159|58|2|48|36|24|58|19|126|59|35|81|104|58|385|278|0|429|306|36|329|294|104,22,blue|red|blue|blue|blue|red|blue|red|red|red|blue|blue|blue|blue|red|red|blue|red|red|red|red|red|red|blue|blue|red|red|red|red|red|blue|red,,G|J|S|M,false|true|true|true,9|7|3|4|9|3|9|2|7|2|1|4|7|2|3|9|1|2|1|6|2|3|7|1|7|4|7|6|7|9|8|9,Universitärer Abschluss,1596031677915,ArrowLeft|ArrowRight|ArrowLeft|ArrowRight|ArrowLeft|ArrowLeft|ArrowLeft|ArrowLeft|ArrowRight|ArrowLeft|ArrowLeft|ArrowRight|ArrowLeft|ArrowRight|ArrowLeft|ArrowRight|ArrowLeft|ArrowLeft|ArrowLeft|ArrowRight|ArrowLeft|ArrowLeft|ArrowRight|ArrowLeft|ArrowLeft|ArrowLeft|ArrowRight|ArrowRight|ArrowRight|ArrowRight|ArrowRight|ArrowRight,168,männlich,Deutsch,MJSM,4557,|ArrowRight|ArrowLeft|ArrowRight|ArrowLeft|ArrowRight|ArrowLeft|ArrowRight|ArrowLeft|ArrowLeft|ArrowLeft|ArrowLeft|ArrowLeft|ArrowLeft|ArrowLeft|ArrowRight|ArrowRight|ArrowLeft|ArrowLeft|ArrowLeft|ArrowLeft|ArrowRight|ArrowRight|ArrowLeft|ArrowRight|ArrowRight|ArrowLeft|ArrowRight|ArrowRight|ArrowLeft|ArrowRight|ArrowLeft,Wed Jul 29 2020 15:57:57 GMT+0200 (CEST),1596031077137,mixed,10.012966666666667,1,main_experiment
1982,615|486|553|418|429|463|452|621|503|509|542|419|509|385|575|441|771|407|485|666|508|474|565|564||436|441|429|484|418|407|497|660|553|474|441|598|384|452|643,22,red|red|red|red|red|red|red|red|red|red|red|red|red|red|red|red|red|red|red|red|red|red|red|red|red|red|red|red|red|red|red|red|red|red|red|red|red|red|red|red,,J|L|X|T|R,true|true|true|false|false,3|2|4|2|4|7|8|4|2|7|6|1|9|1|7|3|6|7|6|4|3|8|6|1|4|9|3|7|9|8|2|8|7|1|8|1|6|7|8|6,Universitärer Abschluss,1596031677915,ArrowLeft|ArrowLeft|ArrowLeft|ArrowLeft|ArrowLeft|ArrowRight|ArrowRight|ArrowLeft|ArrowLeft|ArrowRight|ArrowRight|ArrowLeft|ArrowRight|ArrowLeft|ArrowRight|ArrowLeft|ArrowRight|ArrowRight|ArrowRight|ArrowLeft|ArrowLeft|ArrowRight|ArrowRight|ArrowLeft|ArrowLeft|ArrowRight|ArrowLeft|ArrowRight|ArrowRight|ArrowRight|ArrowLeft|ArrowRight|ArrowRight|ArrowLeft|ArrowRight|ArrowLeft|ArrowRight|ArrowRight|ArrowRight|ArrowRight,168,männlich,Deutsch,JLXR?,6864,ArrowLeft|ArrowLeft|ArrowLeft|ArrowLeft|ArrowLeft|ArrowRight|ArrowRight|ArrowLeft|ArrowLeft|ArrowRight|ArrowRight|ArrowLeft|ArrowRight|ArrowLeft|ArrowRight|ArrowLeft|ArrowRight|ArrowRight|ArrowRight|ArrowLeft|ArrowLeft|ArrowRight|ArrowRight|ArrowLeft||ArrowRight|ArrowLeft|ArrowRight|ArrowRight|ArrowRight|ArrowLeft|ArrowRight|ArrowLeft|ArrowLeft|ArrowRight|ArrowLeft|ArrowRight|ArrowLeft|ArrowRight|ArrowRight,Wed Jul 29 2020 15:57:57 GMT+0200 (CEST),1596031077137,magnitude,10.012966666666667,2,main_experiment
1982,569|418|621|508|497|464|429|486||513|474|508|429|430|486|474|549|419|451|441|463|531|396|450|502|654|430|385|643|440|475|463,22,red|red|red|red|red|red|red|red|red|red|red|red|red|red|red|red|red|red|red|red|red|red|red|red|red|red|red|red|red|red|red|red,,R|V|G|Y,true|true|true|true,1|6|7|4|1|3|1|4|3|7|8|6|9|6|7|9|8|3|8|4|7|3|2|6|4|7|8|1|7|2|9|8,Universitärer Abschluss,1596031677915,ArrowLeft|ArrowRight|ArrowRight|ArrowLeft|ArrowLeft|ArrowLeft|ArrowLeft|ArrowLeft|ArrowLeft|ArrowRight|ArrowRight|ArrowRight|ArrowRight|ArrowRight|ArrowRight|ArrowRight|ArrowRight|ArrowLeft|ArrowRight|ArrowLeft|ArrowRight|ArrowLeft|ArrowLeft|ArrowRight|ArrowLeft|ArrowRight|ArrowRight|ArrowLeft|ArrowRight|ArrowLeft|ArrowRight|ArrowRight,168,männlich,Deutsch,RVGY,5660,ArrowLeft|ArrowRight|ArrowRight|ArrowLeft|ArrowLeft|ArrowLeft|ArrowLeft|ArrowRight||ArrowRight|ArrowRight|ArrowRight|ArrowRight|ArrowRight|ArrowRight|ArrowRight|ArrowRight|ArrowLeft|ArrowRight|ArrowLeft|ArrowRight|ArrowLeft|ArrowLeft|ArrowRight|ArrowLeft|ArrowRight|ArrowRight|ArrowLeft|ArrowRight|ArrowLeft|ArrowRight|ArrowRight,Wed Jul 29 2020 15:57:57 GMT+0200 (CEST),1596031077137,magnitude,10.012966666666667,3,main_experiment
1982,|808|564|542|722|599|509|463|716|553|553|564|576|239|677|565||423|114|161|36|103|24|114|99|115|59|92|115|58|59|93|523|159|59|115|47|137|227|126,22,blue|blue|blue|blue|blue|blue|blue|blue|blue|blue|blue|blue|blue|blue|blue|blue|blue|blue|blue|blue|blue|blue|blue|blue|blue|blue|blue|blue|blue|blue|blue|blue|blue|blue|blue|blue|blue|blue|blue|blue,,V|X|G|C|J,true|true|false|false|true,3|7|6|3|8|2|3|2|7|8|9|8|3|2|6|8|3|6|4|9|7|6|9|6|3|8|4|2|8|2|9|6|6|9|8|7|6|9|3|6,Universitärer Abschluss,1596031677915,ArrowLeft|ArrowLeft|ArrowRight|ArrowLeft|ArrowRight|ArrowRight|ArrowLeft|ArrowRight|ArrowLeft|ArrowRight|ArrowLeft|ArrowRight|ArrowLeft|ArrowRight|ArrowRight|ArrowRight|ArrowLeft|ArrowRight|ArrowRight|ArrowLeft|ArrowLeft|ArrowRight|ArrowLeft|ArrowRight|ArrowLeft|ArrowRight|ArrowRight|ArrowRight|ArrowRight|ArrowRight|ArrowLeft|ArrowRight|ArrowRight|ArrowLeft|ArrowRight|ArrowLeft|ArrowRight|ArrowLeft|ArrowLeft|ArrowRight,168,männlich,Deutsch,VXCGJ,5593,|ArrowRight|ArrowLeft|ArrowRight|ArrowLeft|ArrowLeft|ArrowRight|ArrowLeft|ArrowRight|ArrowLeft|ArrowRight|ArrowLeft|ArrowRight|ArrowLeft|ArrowLeft|ArrowLeft||ArrowRight|ArrowLeft|ArrowRight|ArrowRight|ArrowLeft|ArrowRight|ArrowRight|ArrowLeft|ArrowRight|ArrowLeft|ArrowRight|ArrowLeft|ArrowRight|ArrowLeft|ArrowRight|ArrowLeft|ArrowLeft|ArrowRight|ArrowLeft|ArrowRight|ArrowLeft|ArrowRight|ArrowLeft,Wed Jul 29 2020 15:57:57 GMT+0200 (CEST),1596031077137,parity,10.012966666666667,4,main_experiment
1982,||||||||||||434|103|59|125|63|92|58|103|58|126|92|59|109|24|227|47|181|115|92|115,22,blue|blue|blue|blue|blue|blue|blue|blue|blue|blue|blue|blue|blue|blue|blue|blue|blue|blue|blue|blue|blue|blue|blue|blue|blue|blue|blue|blue|blue|blue|blue|blue,,S|M|L|W,false|false|true|false,7|8|9|1|6|2|4|9|3|6|2|1|9|2|8|6|1|6|8|2|4|8|3|2|1|8|3|9|1|4|6|1,Universitärer Abschluss,1596031677915,ArrowLeft|ArrowRight|ArrowLeft|ArrowLeft|ArrowRight|ArrowRight|ArrowRight|ArrowLeft|ArrowLeft|ArrowRight|ArrowRight|ArrowLeft|ArrowLeft|ArrowRight|ArrowRight|ArrowRight|ArrowLeft|ArrowRight|ArrowRight|ArrowRight|ArrowRight|ArrowRight|ArrowLeft|ArrowRight|ArrowLeft|ArrowRight|ArrowLeft|ArrowLeft|ArrowLeft|ArrowRight|ArrowRight|ArrowLeft,168,männlich,Deutsch,VXLJ,3694,||||||||||||ArrowRight|ArrowLeft|ArrowRight|ArrowLeft|ArrowRight|ArrowLeft|ArrowRight|ArrowLeft|ArrowRight|ArrowLeft|ArrowRight|ArrowRight|ArrowRight|ArrowLeft|ArrowRight|ArrowLeft|ArrowRight|ArrowRight|ArrowLeft|ArrowRight,Wed Jul 29 2020 15:57:57 GMT+0200 (CEST),1596031077137,parity,10.012966666666667,5,main_experiment
1982,|457|126|92|126|13|81|91||662|159|47|47|35|47|69|||44|24|160|136|137|125|||404|103|92|114|92|1||583|159|59|104|46|328|36|||100|47|126|13|81|148,22,blue|blue|blue|blue|blue|blue|blue|blue|blue|blue|blue|blue|blue|blue|blue|blue|blue|blue|blue|blue|blue|blue|blue|blue|blue|blue|blue|blue|blue|blue|blue|blue|blue|blue|blue|blue|blue|blue|blue|blue|blue|blue|blue|blue|blue|blue|blue|blue,,H|R|G|V|L|Z,true|true|true|true|true|true,8|6|7|1|2|8|4|1|3|6|1|8|2|3|2|3|4|3|8|3|9|2|7|1|3|8|1|8|2|4|2|6|2|9|8|4|3|8|2|7|8|9|3|2|1|6|1|3,Universitärer Abschluss,1596031677915,ArrowRight|ArrowRight|ArrowLeft|ArrowLeft|ArrowRight|ArrowRight|ArrowRight|ArrowLeft|ArrowLeft|ArrowRight|ArrowLeft|ArrowRight|ArrowRight|ArrowLeft|ArrowRight|ArrowLeft|ArrowRight|ArrowLeft|ArrowRight|ArrowLeft|ArrowLeft|ArrowRight|ArrowLeft|ArrowLeft|ArrowLeft|ArrowRight|ArrowLeft|ArrowRight|ArrowRight|ArrowRight|ArrowRight|ArrowRight|ArrowRight|ArrowLeft|ArrowRight|ArrowRight|ArrowLeft|ArrowRight|ArrowRight|ArrowLeft|ArrowRight|ArrowLeft|ArrowLeft|ArrowRight|ArrowLeft|ArrowRight|ArrowLeft|ArrowLeft,168,männlich,Deutsch,HRGVLZ,9226,|ArrowRight|ArrowLeft|ArrowRight|ArrowLeft|ArrowRight|ArrowLeft|ArrowRight||ArrowLeft|ArrowLeft|ArrowLeft|ArrowRight|ArrowRight|ArrowRight|ArrowRight|||ArrowRight|ArrowRight|ArrowLeft|ArrowRight|ArrowLeft|ArrowRight|||ArrowRight|ArrowLeft|ArrowRight|ArrowLeft|ArrowRight|ArrowRight||ArrowLeft|ArrowRight|ArrowLeft|ArrowRight|ArrowRight|ArrowRight|ArrowRight|||ArrowLeft|ArrowRight|ArrowLeft|ArrowLeft|ArrowRight|ArrowLeft,Wed Jul 29 2020 15:57:57 GMT+0200 (CEST),1596031077137,parity,10.012966666666667,6,main_experiment
1982,|684|14|272|305|81|59|114|||156|486|92|114|239|114||413|47|59|81|59|103|71|154|115|80|81|80|103|104|148|30|92|13|58|103|14|81|160|9|115|13|114|15|159|126|13,22,red|red|red|red|red|red|red|red|red|red|red|red|red|red|red|red|red|red|red|red|red|red|red|red|red|red|red|red|red|red|red|red|red|red|red|red|red|red|red|red|red|red|red|red|red|red|red|red,,V|B|Q|Y|K|L,true|true|true|true|true|true,9|6|8|4|6|7|8|2|3|9|3|9|8|4|6|3|8|3|8|9|3|2|6|1|4|1|9|4|6|2|1|9|4|8|1|2|4|3|9|8|8|2|3|4|1|6|7|6,Universitärer Abschluss,1596031677915,ArrowRight|ArrowRight|ArrowRight|ArrowLeft|ArrowRight|ArrowRight|ArrowRight|ArrowLeft|ArrowLeft|ArrowRight|ArrowLeft|ArrowRight|ArrowRight|ArrowLeft|ArrowRight|ArrowLeft|ArrowRight|ArrowLeft|ArrowRight|ArrowRight|ArrowLeft|ArrowLeft|ArrowRight|ArrowLeft|ArrowLeft|ArrowLeft|ArrowRight|ArrowLeft|ArrowRight|ArrowLeft|ArrowLeft|ArrowRight|ArrowLeft|ArrowRight|ArrowLeft|ArrowLeft|ArrowLeft|ArrowLeft|ArrowRight|ArrowRight|ArrowRight|ArrowLeft|ArrowLeft|ArrowLeft|ArrowLeft|ArrowRight|ArrowRight|ArrowRight,168,männlich,Deutsch,VBQYKL,6109,|ArrowRight|ArrowLeft|ArrowLeft|ArrowLeft|ArrowRight|ArrowLeft|ArrowRight|||ArrowRight|ArrowLeft|ArrowRight|ArrowLeft|ArrowRight|ArrowRight||ArrowLeft|ArrowRight|ArrowLeft|ArrowRight|ArrowLeft|ArrowRight|ArrowLeft|ArrowRight|ArrowLeft|ArrowRight|ArrowLeft|ArrowRight|ArrowLeft|ArrowRight|ArrowLeft|ArrowRight|ArrowLeft|ArrowLeft|ArrowRight|ArrowLeft|ArrowLeft|ArrowRight|ArrowLeft|ArrowRight|ArrowLeft|ArrowLeft|ArrowRight|ArrowRight|ArrowLeft|ArrowLeft|ArrowLeft,Wed Jul 29 2020 15:57:57 GMT+0200 (CEST),1596031077137,magnitude,10.012966666666667,7,main_experiment
1982,|572|148|69|137|48|81|81||32|171|1|92|13|35|126||278|81|35|92|114|103|92|695|204|137|115|104|80|81|58|717|126|115|70|1|104|125|70,22,red|blue|blue|blue|blue|blue|red|red|red|blue|blue|blue|red|blue|red|red|blue|red|red|red|red|blue|red|blue|red|red|blue|red|red|red|red|blue|blue|red|blue|blue|blue|red|red|blue,,S|C|L|V|Q,true|true|true|true|true,3|8|1|3|8|7|4|6|1|4|1|8|3|8|3|2|8|4|9|1|8|7|4|7|2|6|4|2|7|8|9|8|9|2|7|6|8|1|6|3,Universitärer Abschluss,1596031677915,ArrowLeft|ArrowRight|ArrowLeft|ArrowLeft|ArrowRight|ArrowLeft|ArrowLeft|ArrowRight|ArrowLeft|ArrowRight|ArrowLeft|ArrowRight|ArrowLeft|ArrowRight|ArrowLeft|ArrowLeft|ArrowRight|ArrowLeft|ArrowRight|ArrowLeft|ArrowRight|ArrowLeft|ArrowLeft|ArrowLeft|ArrowLeft|ArrowRight|ArrowRight|ArrowLeft|ArrowRight|ArrowRight|ArrowRight|ArrowRight|ArrowLeft|ArrowLeft|ArrowLeft|ArrowRight|ArrowRight|ArrowLeft|ArrowRight|ArrowLeft,168,männlich,Deutsch,SCLVQ,4703,|ArrowRight|ArrowRight|ArrowLeft|ArrowLeft|ArrowRight|ArrowLeft|ArrowRight||ArrowLeft|ArrowRight|ArrowRight|ArrowLeft|ArrowLeft|ArrowRight|ArrowRight||ArrowLeft|ArrowRight|ArrowRight|ArrowLeft|ArrowLeft|ArrowLeft|ArrowLeft|ArrowLeft|ArrowRight|ArrowLeft|ArrowLeft|ArrowLeft|ArrowLeft|ArrowLeft|ArrowLeft|ArrowLeft|ArrowRight|ArrowLeft|ArrowRight|ArrowLeft|ArrowLeft|ArrowLeft|ArrowLeft,Wed Jul 29 2020 15:57:57 GMT+0200 (CEST),1596031077137,mixed,10.012966666666667,8,main_experiment
1981,|||||||||||||||||||||||,23,red|red|red|red|red|red|red|red|red|red|red|red|red|red|red|red|red|red|red|red|red|red|red|red,,V|M|Z,true|true|true,8|2|1|9|7|8|9|7|8|2|6|4|6|8|2|8|8|3|6|4|2|3|1|3,Universitärer Abschluss,1596029952178,ArrowRight|ArrowLeft|ArrowLeft|ArrowRight|ArrowRight|ArrowRight|ArrowRight|ArrowRight|ArrowRight|ArrowLeft|ArrowRight|ArrowLeft|ArrowRight|ArrowRight|ArrowLeft|ArrowRight|ArrowRight|ArrowLeft|ArrowRight|ArrowLeft|ArrowLeft|ArrowLeft|ArrowLeft|ArrowLeft,168,männlich,deutsch,VMZ,21126,|||||||||||||||||||||||,Wed Jul 29 2020 15:22:53 GMT+0200 (Mitteleuropäische Sommerzeit),1596028973533,magnitude,16.31075,0,first_practice
1981,,23,red|red|red|red|red|red|red|red,,W,,9|4|3|4|8|4|1|3,Universitärer Abschluss,1596029952178,ArrowRight|ArrowLeft|ArrowLeft|ArrowLeft|ArrowRight|ArrowLeft|ArrowLeft|ArrowLeft,168,männlich,deutsch,,,,Wed Jul 29 2020 15:22:53 GMT+0200 (Mitteleuropäische Sommerzeit),1596028973533,magnitude,16.31075,0,second_practice
1981,,23,blue|blue|blue|blue|blue|blue|blue|blue,,L,,1|8|3|7|6|8|6|7,Universitärer Abschluss,1596029952178,ArrowLeft|ArrowRight|ArrowLeft|ArrowLeft|ArrowRight|ArrowRight|ArrowRight|ArrowLeft,168,männlich,deutsch,,,,Wed Jul 29 2020 15:22:53 GMT+0200 (Mitteleuropäische Sommerzeit),1596028973533,parity,16.31075,1,second_practice
1981,,23,red|red|red|blue|red|blue|blue|blue,,N,,3|7|3|9|4|9|6|2,Universitärer Abschluss,1596029952178,ArrowLeft|ArrowRight|ArrowLeft|ArrowLeft|ArrowLeft|ArrowLeft|ArrowRight|ArrowRight,168,männlich,deutsch,,,,Wed Jul 29 2020 15:22:53 GMT+0200 (Mitteleuropäische Sommerzeit),1596028973533,mixed,16.31075,2,second_practice
1981,|834|613|828|686|519|750|||653|549|666|599|557|741|759|723|838|620||617|742|640|466,23,blue|red|red|blue|red|red|red|red|blue|blue|blue|blue|blue|blue|blue|red|red|blue|red|blue|blue|blue|blue|blue,,G|W|X,true|true|true,6|4|2|4|7|3|2|6|1|4|8|1|3|8|9|2|3|4|8|7|9|2|8|7,Universitärer Abschluss,1596029952178,ArrowRight|ArrowLeft|ArrowLeft|ArrowRight|ArrowRight|ArrowLeft|ArrowLeft|ArrowRight|ArrowLeft|ArrowRight|ArrowRight|ArrowLeft|ArrowLeft|ArrowRight|ArrowLeft|ArrowLeft|ArrowLeft|ArrowRight|ArrowRight|ArrowLeft|ArrowLeft|ArrowRight|ArrowRight|ArrowLeft,168,männlich,deutsch,GWX,5448,|ArrowLeft|ArrowLeft|ArrowRight|ArrowRight|ArrowLeft|ArrowLeft|||ArrowRight|ArrowRight|ArrowLeft|ArrowLeft|ArrowRight|ArrowLeft|ArrowRight|ArrowLeft|ArrowRight|ArrowRight||ArrowRight|ArrowRight|ArrowRight|ArrowLeft,Wed Jul 29 2020 15:22:53 GMT+0200 (Mitteleuropäische Sommerzeit),1596028973533,mixed,16.31075,0,third_practice
1981,|442|544|782|496|598|601|492|876|588|496|574|553|630|573|515|722|490|480|473|466|530|536|536|642|482|617|607|775|623|728|458||613|350|553|707|703|734|559|786||431|524|655|643|718|,23,red|red|red|red|red|red|red|red|red|red|red|red|red|red|red|red|red|red|red|red|red|red|red|red|red|red|red|red|red|red|red|red|red|red|red|red|red|red|red|red|red|red|red|red|red|red|red|red,,D|G|C|L|Y|K,true|true|false|false|true|true,7|1|6|8|4|1|8|2|9|4|8|3|1|6|7|3|2|6|8|6|9|7|4|8|2|1|3|4|7|6|4|7|6|1|7|3|1|9|7|1|9|3|6|8|6|4|7|9,Universitärer Abschluss,1596029952178,ArrowRight|ArrowLeft|ArrowRight|ArrowRight|ArrowLeft|ArrowLeft|ArrowRight|ArrowLeft|ArrowRight|ArrowLeft|ArrowRight|ArrowLeft|ArrowLeft|ArrowRight|ArrowRight|ArrowLeft|ArrowLeft|ArrowRight|ArrowRight|ArrowRight|ArrowRight|ArrowRight|ArrowLeft|ArrowRight|ArrowLeft|ArrowLeft|ArrowLeft|ArrowLeft|ArrowRight|ArrowRight|ArrowLeft|ArrowRight|ArrowRight|ArrowLeft|ArrowRight|ArrowLeft|ArrowLeft|ArrowRight|ArrowRight|ArrowLeft|ArrowRight|ArrowLeft|ArrowRight|ArrowRight|ArrowRight|ArrowLeft|ArrowRight|ArrowRight,168,männlich,deutsch,DGLCYK,6642,|ArrowLeft|ArrowRight|ArrowRight|ArrowLeft|ArrowLeft|ArrowRight|ArrowLeft|ArrowRight|ArrowLeft|ArrowRight|ArrowLeft|ArrowLeft|ArrowRight|ArrowRight|ArrowLeft|ArrowLeft|ArrowRight|ArrowRight|ArrowRight|ArrowRight|ArrowRight|ArrowLeft|ArrowRight|ArrowLeft|ArrowLeft|ArrowLeft|ArrowLeft|ArrowRight|ArrowRight|ArrowLeft|ArrowRight||ArrowLeft|ArrowRight|ArrowLeft|ArrowLeft|ArrowRight|ArrowRight|ArrowLeft|ArrowRight||ArrowRight|ArrowRight|ArrowRight|ArrowLeft|ArrowRight|,Wed Jul 29 2020 15:22:53 GMT+0200 (Mitteleuropäische Sommerzeit),1596028973533,magnitude,16.31075,0,main_experiment
1981,|588|641|707|574|537|537|732|727|526|590|642|787|630|522|745|707|522|488|606|527|620|630|604||555|520|537|522|555|787|||468|492|625|830|611|796|722,23,blue|blue|blue|blue|blue|blue|blue|blue|blue|blue|blue|blue|blue|blue|blue|blue|blue|blue|blue|blue|blue|blue|blue|blue|blue|blue|blue|blue|blue|blue|blue|blue|blue|blue|blue|blue|blue|blue|blue|blue,,Q|Z|R|W|J,true|true|true|true|true,3|1|9|4|6|4|3|9|4|9|7|1|3|8|3|9|2|9|7|2|1|7|2|1|7|1|3|2|6|7|4|3|7|6|1|8|4|1|2|9,Universitärer Abschluss,1596029952178,ArrowLeft|ArrowLeft|ArrowLeft|ArrowRight|ArrowRight|ArrowRight|ArrowLeft|ArrowLeft|ArrowRight|ArrowLeft|ArrowLeft|ArrowLeft|ArrowLeft|ArrowRight|ArrowLeft|ArrowLeft|ArrowRight|ArrowLeft|ArrowLeft|ArrowRight|ArrowLeft|ArrowLeft|ArrowRight|ArrowLeft|ArrowLeft|ArrowLeft|ArrowLeft|ArrowRight|ArrowRight|ArrowLeft|ArrowRight|ArrowLeft|ArrowLeft|ArrowRight|ArrowLeft|ArrowRight|ArrowRight|ArrowLeft|ArrowRight|ArrowLeft,168,männlich,deutsch,QZRWJ,6090,|ArrowLeft|ArrowLeft|ArrowLeft|ArrowRight|ArrowRight|ArrowLeft|ArrowLeft|ArrowRight|ArrowLeft|ArrowLeft|ArrowLeft|ArrowLeft|ArrowRight|ArrowLeft|ArrowLeft|ArrowRight|ArrowLeft|ArrowLeft|ArrowRight|ArrowLeft|ArrowLeft|ArrowLeft|ArrowLeft||ArrowLeft|ArrowLeft|ArrowRight|ArrowRight|ArrowLeft|ArrowRight|||ArrowRight|ArrowLeft|ArrowRight|ArrowRight|ArrowLeft|ArrowRight|ArrowLeft,Wed Jul 29 2020 15:22:53 GMT+0200 (Mitteleuropäische Sommerzeit),1596028973533,parity,16.31075,1,main_experiment
1981,553||628|733|880|900|615|902|883||69||824|863|734|862|744|459|789|574|542|582|873|611|658||748|695|647|729|823|729||799|650|669|617||872|643,23,red|blue|blue|blue|red|red|blue|red|blue|red|red|blue|red|red|blue|red|red|red|blue|blue|blue|blue|red|blue|blue|blue|red|blue|red|red|blue|red|blue|blue|blue|blue|red|blue|blue|red,,B|X|S|J|Q,true|false|false|true|true,1|2|9|3|2|6|8|9|1|7|4|1|8|3|4|8|9|7|2|6|4|8|7|8|1|3|2|4|3|1|2|9|3|1|6|7|1|7|2|1,Universitärer Abschluss,1596029952178,ArrowLeft|ArrowRight|ArrowLeft|ArrowLeft|ArrowLeft|ArrowRight|ArrowRight|ArrowRight|ArrowLeft|ArrowRight|ArrowLeft|ArrowLeft|ArrowRight|ArrowLeft|ArrowRight|ArrowRight|ArrowRight|ArrowRight|ArrowRight|ArrowRight|ArrowRight|ArrowRight|ArrowRight|ArrowRight|ArrowLeft|ArrowLeft|ArrowLeft|ArrowRight|ArrowLeft|ArrowLeft|ArrowRight|ArrowRight|ArrowLeft|ArrowLeft|ArrowRight|ArrowLeft|ArrowLeft|ArrowLeft|ArrowRight|ArrowLeft,168,männlich,deutsch,BSXJQ,5427,ArrowLeft||ArrowLeft|ArrowLeft|ArrowLeft|ArrowRight|ArrowRight|ArrowRight|ArrowLeft||ArrowRight||ArrowRight|ArrowLeft|ArrowRight|ArrowRight|ArrowRight|ArrowRight|ArrowRight|ArrowRight|ArrowRight|ArrowRight|ArrowRight|ArrowRight|ArrowLeft||ArrowLeft|ArrowRight|ArrowLeft|ArrowLeft|ArrowRight|ArrowRight||ArrowLeft|ArrowRight|ArrowLeft|ArrowLeft||ArrowRight|ArrowLeft,Wed Jul 29 2020 15:22:53 GMT+0200 (Mitteleuropäische Sommerzeit),1596028973533,mixed,16.31075,2,main_experiment
1981,|550|475|593|555|663|485|663|641|492|443|468|551|520|574|818||583|515|449|649|748|616|578|672|576|568|648|744|631|801|530,23,blue|blue|blue|blue|blue|blue|blue|blue|blue|blue|blue|blue|blue|blue|blue|blue|blue|blue|blue|blue|blue|blue|blue|blue|blue|blue|blue|blue|blue|blue|blue|blue,,N|C|Y|X,true|true|true|true,2|7|6|3|7|2|7|1|2|1|8|6|8|3|1|9|9|4|2|4|7|9|2|3|7|3|1|9|4|9|2|4,Universitärer Abschluss,1596029952178,ArrowRight|ArrowLeft|ArrowRight|ArrowLeft|ArrowLeft|ArrowRight|ArrowLeft|ArrowLeft|ArrowRight|ArrowLeft|ArrowRight|ArrowRight|ArrowRight|ArrowLeft|ArrowLeft|ArrowLeft|ArrowLeft|ArrowRight|ArrowRight|ArrowRight|ArrowLeft|ArrowLeft|ArrowRight|ArrowLeft|ArrowLeft|ArrowLeft|ArrowLeft|ArrowLeft|ArrowRight|ArrowLeft|ArrowRight|ArrowRight,168,männlich,deutsch,NCYX,6283,|ArrowLeft|ArrowRight|ArrowLeft|ArrowLeft|ArrowRight|ArrowLeft|ArrowLeft|ArrowRight|ArrowLeft|ArrowRight|ArrowRight|ArrowRight|ArrowLeft|ArrowLeft|ArrowRight||ArrowLeft|ArrowRight|ArrowRight|ArrowLeft|ArrowRight|ArrowRight|ArrowLeft|ArrowLeft|ArrowLeft|ArrowLeft|ArrowLeft|ArrowRight|ArrowLeft|ArrowRight|ArrowRight,Wed Jul 29 2020 15:22:53 GMT+0200 (Mitteleuropäische Sommerzeit),1596028973533,parity,16.31075,3,main_experiment
1981,723|643|508|539||479|617|884||488|617|638|625|812|682|540|567|472|527|657|526|462|550|523|586|461|564|421|504|596|528|796|514|406|448|493|526|596|371|567,23,red|red|red|red|red|red|red|red|red|red|red|red|red|red|red|red|red|red|red|red|red|red|red|red|red|red|red|red|red|red|red|red|red|red|red|red|red|red|red|red,,H|L|X|J|Z,true|true|true|true|true,8|1|8|7|4|6|2|9|4|2|7|3|7|6|7|9|8|2|4|8|4|6|8|9|2|8|2|6|1|2|6|7|9|8|7|9|2|6|2|8,Universitärer Abschluss,1596029952178,ArrowRight|ArrowLeft|ArrowRight|ArrowRight|ArrowLeft|ArrowRight|ArrowLeft|ArrowRight|ArrowLeft|ArrowLeft|ArrowRight|ArrowLeft|ArrowRight|ArrowRight|ArrowRight|ArrowRight|ArrowRight|ArrowLeft|ArrowLeft|ArrowRight|ArrowLeft|ArrowRight|ArrowRight|ArrowRight|ArrowLeft|ArrowRight|ArrowLeft|ArrowRight|ArrowLeft|ArrowLeft|ArrowRight|ArrowRight|ArrowRight|ArrowRight|ArrowRight|ArrowRight|ArrowLeft|ArrowRight|ArrowLeft|ArrowRight,168,männlich,deutsch,HLXJZ,6817,ArrowRight|ArrowLeft|ArrowRight|ArrowRight||ArrowRight|ArrowLeft|ArrowRight||ArrowLeft|ArrowRight|ArrowLeft|ArrowRight|ArrowRight|ArrowRight|ArrowRight|ArrowRight|ArrowLeft|ArrowLeft|ArrowRight|ArrowLeft|ArrowRight|ArrowRight|ArrowRight|ArrowLeft|ArrowRight|ArrowLeft|ArrowRight|ArrowLeft|ArrowLeft|ArrowRight|ArrowRight|ArrowRight|ArrowRight|ArrowRight|ArrowRight|ArrowLeft|ArrowRight|ArrowLeft|ArrowRight,Wed Jul 29 2020 15:22:53 GMT+0200 (Mitteleuropäische Sommerzeit),1596028973533,magnitude,16.31075,4,main_experiment
1981,792||604|560|499|502|544|679|508|893|654|643|821|633|834|698||336|427||764|576|800|851||635|470||611|757|493|||668|492|803|695|888|825|874|||522||550||735|711,23,blue|red|red|red|red|red|red|blue|red|blue|blue|red|blue|blue|blue|red|red|red|red|blue|blue|blue|blue|red|blue|red|red|blue|blue|red|blue|red|blue|red|red|blue|blue|red|red|red|red|blue|red|red|red|blue|blue|red,,Z|N|H|J|S|X,true|true|true|false|false|true,2|4|7|1|3|1|9|4|6|7|6|9|6|3|9|6|2|3|1|2|8|7|2|8|9|3|2|1|3|4|1|4|2|7|1|3|2|9|6|2|6|3|8|1|8|9|7|2,Universitärer Abschluss,1596029952178,ArrowRight|ArrowLeft|ArrowRight|ArrowLeft|ArrowLeft|ArrowLeft|ArrowRight|ArrowRight|ArrowRight|ArrowLeft|ArrowRight|ArrowRight|ArrowRight|ArrowLeft|ArrowLeft|ArrowRight|ArrowLeft|ArrowLeft|ArrowLeft|ArrowRight|ArrowRight|ArrowLeft|ArrowRight|ArrowRight|ArrowLeft|ArrowLeft|ArrowLeft|ArrowLeft|ArrowLeft|ArrowLeft|ArrowLeft|ArrowLeft|ArrowRight|ArrowRight|ArrowLeft|ArrowLeft|ArrowRight|ArrowRight|ArrowRight|ArrowLeft|ArrowRight|ArrowLeft|ArrowRight|ArrowLeft|ArrowRight|ArrowLeft|ArrowLeft|ArrowLeft,168,männlich,deutsch,ZNHSJX,19491,ArrowLeft||ArrowRight|ArrowLeft|ArrowLeft|ArrowLeft|ArrowRight|ArrowRight|ArrowRight|ArrowLeft|ArrowRight|ArrowRight|ArrowRight|ArrowLeft|ArrowLeft|ArrowRight||ArrowLeft|ArrowLeft||ArrowRight|ArrowLeft|ArrowRight|ArrowRight||ArrowLeft|ArrowLeft||ArrowLeft|ArrowLeft|ArrowLeft|||ArrowRight|ArrowLeft|ArrowLeft|ArrowLeft|ArrowLeft|ArrowRight|ArrowLeft|||ArrowRight||ArrowRight||ArrowRight|ArrowRight,Wed Jul 29 2020 15:22:53 GMT+0200 (Mitteleuropäische Sommerzeit),1596028973533,mixed,16.31075,5,main_experiment
1981,531|571|544|419|476|496|505|547|788|410|374|454|475|478|849|529|712|580|885|482|575|484|414|606|565||901|580|535|802|685|491||550|639|484|522|563|656|818||493|496|599|503|568|532|454,23,blue|blue|blue|blue|blue|blue|blue|blue|blue|blue|blue|blue|blue|blue|blue|blue|blue|blue|blue|blue|blue|blue|blue|blue|blue|blue|blue|blue|blue|blue|blue|blue|blue|blue|blue|blue|blue|blue|blue|blue|blue|blue|blue|blue|blue|blue|blue|blue,,V|N|J|P|G|R,true|true|true|true|true|true,4|9|1|3|8|7|1|6|2|6|8|3|1|3|9|8|6|3|2|1|3|4|8|2|3|7|9|7|2|3|2|4|9|7|4|1|4|8|7|9|7|2|7|6|1|7|4|1,Universitärer Abschluss,1596029952178,ArrowRight|ArrowLeft|ArrowLeft|ArrowLeft|ArrowRight|ArrowLeft|ArrowLeft|ArrowRight|ArrowRight|ArrowRight|ArrowRight|ArrowLeft|ArrowLeft|ArrowLeft|ArrowLeft|ArrowRight|ArrowRight|ArrowLeft|ArrowRight|ArrowLeft|ArrowLeft|ArrowRight|ArrowRight|ArrowRight|ArrowLeft|ArrowLeft|ArrowLeft|ArrowLeft|ArrowRight|ArrowLeft|ArrowRight|ArrowRight|ArrowLeft|ArrowLeft|ArrowRight|ArrowLeft|ArrowRight|ArrowRight|ArrowLeft|ArrowLeft|ArrowLeft|ArrowRight|ArrowLeft|ArrowRight|ArrowLeft|ArrowLeft|ArrowRight|ArrowLeft,168,männlich,deutsch,VNJPGR,7406,ArrowRight|ArrowLeft|ArrowLeft|ArrowLeft|ArrowRight|ArrowLeft|ArrowLeft|ArrowRight|ArrowRight|ArrowRight|ArrowRight|ArrowLeft|ArrowLeft|ArrowLeft|ArrowLeft|ArrowRight|ArrowRight|ArrowLeft|ArrowRight|ArrowLeft|ArrowLeft|ArrowRight|ArrowRight|ArrowRight|ArrowLeft||ArrowLeft|ArrowLeft|ArrowRight|ArrowLeft|ArrowRight|ArrowRight||ArrowLeft|ArrowRight|ArrowLeft|ArrowRight|ArrowRight|ArrowLeft|ArrowLeft||ArrowRight|ArrowLeft|ArrowRight|ArrowLeft|ArrowLeft|ArrowRight|ArrowLeft,Wed Jul 29 2020 15:22:53 GMT+0200 (Mitteleuropäische Sommerzeit),1596028973533,parity,16.31075,6,main_experiment
1981,|554|545|443|808|750|759|633||466|436|776||866|663|736|||505|||||678||790|521|701|792|642|716|583,23,blue|red|red|red|blue|red|red|blue|red|red|red|blue|red|blue|blue|red|red|blue|blue|red|blue|red|blue|red|blue|red|red|blue|red|red|blue|red,,R|K|V|Z,true|true|true|true,9|1|7|1|3|9|2|8|6|2|3|9|6|3|2|6|2|7|6|4|1|2|9|7|9|7|9|8|4|8|2|1,Universitärer Abschluss,1596029952178,ArrowLeft|ArrowLeft|ArrowRight|ArrowLeft|ArrowLeft|ArrowRight|ArrowLeft|ArrowRight|ArrowRight|ArrowLeft|ArrowLeft|ArrowLeft|ArrowRight|ArrowLeft|ArrowRight|ArrowRight|ArrowLeft|ArrowLeft|ArrowRight|ArrowLeft|ArrowLeft|ArrowLeft|ArrowLeft|ArrowRight|ArrowLeft|ArrowRight|ArrowRight|ArrowRight|ArrowLeft|ArrowRight|ArrowRight|ArrowLeft,168,männlich,deutsch,RKVZ,6451,|ArrowLeft|ArrowLeft|ArrowLeft|ArrowLeft|ArrowLeft|ArrowLeft|ArrowRight||ArrowLeft|ArrowLeft|ArrowLeft||ArrowLeft|ArrowRight|ArrowRight|||ArrowRight|||||ArrowRight||ArrowLeft|ArrowRight|ArrowRight|ArrowLeft|ArrowRight|ArrowLeft|ArrowLeft,Wed Jul 29 2020 15:22:53 GMT+0200 (Mitteleuropäische Sommerzeit),1596028973533,mixed,16.31075,7,main_experiment
1981,380|416|512|410|677|784|628|659|770|471|584|480|513|509|467|458|853|758|589|636|600|762|513|609||480|556|665||399|476|549,23,red|red|red|red|red|red|red|red|red|red|red|red|red|red|red|red|red|red|red|red|red|red|red|red|red|red|red|red|red|red|red|red,,Y|L|Z|Q,true|true|true|true,2|8|7|1|7|6|4|8|9|7|6|2|4|8|2|4|2|4|2|3|7|3|4|8|4|8|4|3|4|6|4|2,Universitärer Abschluss,1596029952178,ArrowLeft|ArrowRight|ArrowRight|ArrowLeft|ArrowRight|ArrowRight|ArrowLeft|ArrowRight|ArrowRight|ArrowRight|ArrowRight|ArrowLeft|ArrowLeft|ArrowRight|ArrowLeft|ArrowLeft|ArrowLeft|ArrowLeft|ArrowLeft|ArrowLeft|ArrowRight|ArrowLeft|ArrowLeft|ArrowRight|ArrowLeft|ArrowRight|ArrowLeft|ArrowLeft|ArrowLeft|ArrowRight|ArrowLeft|ArrowLeft,168,männlich,deutsch,YLZQ,5399,ArrowLeft|ArrowRight|ArrowRight|ArrowLeft|ArrowRight|ArrowRight|ArrowLeft|ArrowRight|ArrowRight|ArrowRight|ArrowRight|ArrowLeft|ArrowLeft|ArrowRight|ArrowLeft|ArrowRight|ArrowLeft|ArrowLeft|ArrowLeft|ArrowLeft|ArrowRight|ArrowLeft|ArrowLeft|ArrowRight||ArrowRight|ArrowLeft|ArrowLeft||ArrowRight|ArrowLeft|ArrowLeft,Wed Jul 29 2020 15:22:53 GMT+0200 (Mitteleuropäische Sommerzeit),1596028973533,magnitude,16.31075,8,main_experiment
1978,|||||||||||||||||||||||,23,red|red|red|red|red|red|red|red|red|red|red|red|red|red|red|red|red|red|red|red|red|red|red|red,,H|J|F,true|true|true,4|2|8|2|4|7|1|6|7|3|6|3|2|6|3|9|6|8|2|4|1|4|7|9,Abitur,1596022541823,ArrowLeft|ArrowLeft|ArrowRight|ArrowLeft|ArrowLeft|ArrowRight|ArrowLeft|ArrowRight|ArrowRight|ArrowLeft|ArrowRight|ArrowLeft|ArrowLeft|ArrowRight|ArrowLeft|ArrowRight|ArrowRight|ArrowRight|ArrowLeft|ArrowLeft|ArrowLeft|ArrowLeft|ArrowRight|ArrowRight,168,männlich,Deutsch,HJF,11288,|||||||||||||||||||||||,Wed Jul 29 2020 13:21:51 GMT+0200 (Mitteleuropäische Sommerzeit),1596021711722,magnitude,13.835016666666666,0,first_practice
1978,,23,red|red|red|red|red|red|red|red,,R,,2|3|9|8|2|4|1|8,Abitur,1596022541823,ArrowLeft|ArrowLeft|ArrowRight|ArrowRight|ArrowLeft|ArrowLeft|ArrowLeft|ArrowRight,168,männlich,Deutsch,,,,Wed Jul 29 2020 13:21:51 GMT+0200 (Mitteleuropäische Sommerzeit),1596021711722,magnitude,13.835016666666666,0,second_practice
1978,,23,blue|blue|blue|blue|blue|blue|blue|blue,,C,,3|8|2|7|2|3|2|6,Abitur,1596022541823,ArrowLeft|ArrowRight|ArrowRight|ArrowLeft|ArrowRight|ArrowLeft|ArrowRight|ArrowRight,168,männlich,Deutsch,,,,Wed Jul 29 2020 13:21:51 GMT+0200 (Mitteleuropäische Sommerzeit),1596021711722,parity,13.835016666666666,1,second_practice
1978,,23,red|red|blue|blue|blue|blue|blue|blue,,F,,9|1|9|7|3|2|3|2,Abitur,1596022541823,ArrowRight|ArrowLeft|ArrowLeft|ArrowLeft|ArrowLeft|ArrowRight|ArrowLeft|ArrowRight,168,männlich,Deutsch,,,,Wed Jul 29 2020 13:21:51 GMT+0200 (Mitteleuropäische Sommerzeit),1596021711722,mixed,13.835016666666666,2,second_practice
1978,||529|607||||||||||||813||525||719||||,23,blue|red|red|blue|red|red|blue|red|red|blue|blue|blue|blue|blue|red|blue|blue|blue|blue|blue|red|red|blue|blue,,N|V|G,false|false|false,4|9|3|4|6|4|8|6|6|7|3|7|6|4|3|9|8|1|6|3|4|6|2|9,Abitur,1596022541823,ArrowRight|ArrowRight|ArrowLeft|ArrowRight|ArrowRight|ArrowLeft|ArrowRight|ArrowRight|ArrowRight|ArrowLeft|ArrowLeft|ArrowLeft|ArrowRight|ArrowRight|ArrowLeft|ArrowLeft|ArrowRight|ArrowLeft|ArrowRight|ArrowLeft|ArrowLeft|ArrowRight|ArrowRight|ArrowLeft,168,männlich,Deutsch,???,13039,||ArrowRight|ArrowRight||||||||||||ArrowRight||ArrowLeft||ArrowLeft||||,Wed Jul 29 2020 13:21:51 GMT+0200 (Mitteleuropäische Sommerzeit),1596021711722,mixed,13.835016666666666,0,third_practice
1978,832|513|533|519|573|691|523|607|730|415|462|516|539|523|632|498||435|416|478|331|417|454|530||532|460|543|564|556|424|515|691|537|527|471|668|543|525|484,23,blue|blue|blue|blue|blue|blue|blue|blue|blue|blue|blue|blue|blue|blue|blue|blue|blue|blue|blue|blue|blue|blue|blue|blue|blue|blue|blue|blue|blue|blue|blue|blue|blue|blue|blue|blue|blue|blue|blue|blue,,G|N|W|C|L,true|true|true|true|true,2|3|9|4|7|9|3|8|4|6|9|1|2|3|7|2|6|4|6|4|6|2|1|4|4|6|1|9|6|2|6|2|1|6|1|8|4|7|3|7,Abitur,1596022541823,ArrowRight|ArrowLeft|ArrowLeft|ArrowRight|ArrowLeft|ArrowLeft|ArrowLeft|ArrowRight|ArrowRight|ArrowRight|ArrowLeft|ArrowLeft|ArrowRight|ArrowLeft|ArrowLeft|ArrowRight|ArrowRight|ArrowRight|ArrowRight|ArrowRight|ArrowRight|ArrowRight|ArrowLeft|ArrowRight|ArrowRight|ArrowRight|ArrowLeft|ArrowLeft|ArrowRight|ArrowRight|ArrowRight|ArrowRight|ArrowLeft|ArrowRight|ArrowLeft|ArrowRight|ArrowRight|ArrowLeft|ArrowLeft|ArrowLeft,168,männlich,Deutsch,GNWCL,12354,ArrowRight|ArrowLeft|ArrowLeft|ArrowRight|ArrowLeft|ArrowLeft|ArrowLeft|ArrowRight|ArrowRight|ArrowRight|ArrowLeft|ArrowLeft|ArrowRight|ArrowLeft|ArrowLeft|ArrowRight||ArrowRight|ArrowRight|ArrowRight|ArrowRight|ArrowLeft|ArrowRight|ArrowRight||ArrowRight|ArrowLeft|ArrowLeft|ArrowRight|ArrowRight|ArrowRight|ArrowRight|ArrowLeft|ArrowLeft|ArrowLeft|ArrowRight|ArrowRight|ArrowLeft|ArrowLeft|ArrowLeft,Wed Jul 29 2020 13:21:51 GMT+0200 (Mitteleuropäische Sommerzeit),1596021711722,parity,13.835016666666666,0,main_experiment
1978,|731|||672|754||651|582|525|645|696|810|574|572|715|747|560|526||751|807||||506|697|625|827|638|642|||||472||701|579|,23,blue|red|red|red|red|red|blue|blue|red|red|blue|red|blue|blue|blue|blue|blue|blue|blue|red|blue|blue|red|red|red|red|blue|blue|red|red|blue|red|blue|blue|blue|blue|red|red|red|red,,X|R|K|D|Y,true|true|true|true|true,8|7|8|3|6|3|1|8|8|6|4|6|1|3|7|2|1|6|8|9|2|8|6|4|4|8|9|7|2|8|1|6|8|2|6|3|6|9|7|8,Abitur,1596022541823,ArrowRight|ArrowRight|ArrowRight|ArrowLeft|ArrowRight|ArrowLeft|ArrowLeft|ArrowRight|ArrowRight|ArrowRight|ArrowRight|ArrowRight|ArrowLeft|ArrowLeft|ArrowLeft|ArrowRight|ArrowLeft|ArrowRight|ArrowRight|ArrowRight|ArrowRight|ArrowRight|ArrowRight|ArrowLeft|ArrowLeft|ArrowRight|ArrowLeft|ArrowLeft|ArrowLeft|ArrowRight|ArrowLeft|ArrowRight|ArrowRight|ArrowRight|ArrowRight|ArrowLeft|ArrowRight|ArrowRight|ArrowRight|ArrowRight,168,männlich,Deutsch,XRKDY,9910,|ArrowLeft|||ArrowRight|ArrowLeft||ArrowRight|ArrowRight|ArrowRight|ArrowLeft|ArrowLeft|ArrowLeft|ArrowLeft|ArrowRight|ArrowLeft|ArrowLeft|ArrowRight|ArrowRight||ArrowLeft|ArrowRight||||ArrowRight|ArrowRight|ArrowLeft|ArrowLeft|ArrowRight|ArrowLeft|||||ArrowRight||ArrowRight|ArrowLeft|,Wed Jul 29 2020 13:21:51 GMT+0200 (Mitteleuropäische Sommerzeit),1596021711722,mixed,13.835016666666666,1,main_experiment
1978,826|460|768|516|586|798||617||395|633|495|492|525|778|891||848|370|502|809|512|760|||651|909|582|599||||758|681|534|481|569|505|774|600||||789|544||455|,23,blue|blue|red|blue|blue|red|blue|blue|red|red|red|red|red|red|blue|red|blue|red|blue|red|blue|blue|red|blue|blue|blue|red|blue|red|blue|red|blue|red|red|blue|blue|blue|red|blue|blue|red|blue|blue|red|red|blue|blue|blue,,R|K|C|M|G|Q,true|true|true|true|true|true,1|6|2|8|3|7|4|3|8|6|3|6|8|4|9|7|6|2|6|4|1|2|9|6|3|2|8|3|2|6|9|7|9|6|7|9|1|2|6|4|2|9|6|7|6|9|4|7,Abitur,1596022541823,ArrowLeft|ArrowRight|ArrowLeft|ArrowRight|ArrowLeft|ArrowRight|ArrowRight|ArrowLeft|ArrowRight|ArrowRight|ArrowLeft|ArrowRight|ArrowRight|ArrowLeft|ArrowLeft|ArrowRight|ArrowRight|ArrowLeft|ArrowRight|ArrowLeft|ArrowLeft|ArrowRight|ArrowRight|ArrowRight|ArrowLeft|ArrowRight|ArrowRight|ArrowLeft|ArrowLeft|ArrowRight|ArrowRight|ArrowLeft|ArrowRight|ArrowRight|ArrowLeft|ArrowLeft|ArrowLeft|ArrowLeft|ArrowRight|ArrowRight|ArrowLeft|ArrowLeft|ArrowRight|ArrowRight|ArrowRight|ArrowLeft|ArrowRight|ArrowLeft,168,männlich,Deutsch,RKCMGQ,7569,ArrowLeft|ArrowLeft|ArrowLeft|ArrowRight|ArrowLeft|ArrowLeft||ArrowLeft||ArrowRight|ArrowLeft|ArrowRight|ArrowRight|ArrowLeft|ArrowLeft|ArrowRight||ArrowLeft|ArrowRight|ArrowLeft|ArrowLeft|ArrowLeft|ArrowRight|||ArrowLeft|ArrowLeft|ArrowLeft|ArrowRight||||ArrowRight|ArrowRight|ArrowLeft|ArrowLeft|ArrowLeft|ArrowRight|ArrowLeft|ArrowLeft||||ArrowLeft|ArrowLeft||ArrowLeft|,Wed Jul 29 2020 13:21:51 GMT+0200 (Mitteleuropäische Sommerzeit),1596021711722,mixed,13.835016666666666,2,main_experiment
1978,420|640|583|696|582|575|596|713||409|430|430|379|632|456|658|415|489|507|510|423|522|473|567|616|359|383|389|427|400|381|459||779|444|494|488|529|624|513,23,red|red|red|red|red|red|red|red|red|red|red|red|red|red|red|red|red|red|red|red|red|red|red|red|red|red|red|red|red|red|red|red|red|red|red|red|red|red|red|red,,R|T|X|M|Y,true|true|true|true|true,6|1|9|2|1|7|4|8|4|3|4|8|4|7|1|4|1|2|8|3|2|6|4|9|1|3|1|4|6|1|2|6|6|7|9|2|7|9|8|2,Abitur,1596022541823,ArrowRight|ArrowLeft|ArrowRight|ArrowLeft|ArrowLeft|ArrowRight|ArrowLeft|ArrowRight|ArrowLeft|ArrowLeft|ArrowLeft|ArrowRight|ArrowLeft|ArrowRight|ArrowLeft|ArrowLeft|ArrowLeft|ArrowLeft|ArrowRight|ArrowLeft|ArrowLeft|ArrowRight|ArrowLeft|ArrowRight|ArrowLeft|ArrowLeft|ArrowLeft|ArrowLeft|ArrowRight|ArrowLeft|ArrowLeft|ArrowRight|ArrowRight|ArrowRight|ArrowRight|ArrowLeft|ArrowRight|ArrowRight|ArrowRight|ArrowLeft,168,männlich,Deutsch,RTXMY,6403,ArrowRight|ArrowLeft|ArrowRight|ArrowLeft|ArrowLeft|ArrowRight|ArrowLeft|ArrowRight||ArrowLeft|ArrowLeft|ArrowRight|ArrowLeft|ArrowRight|ArrowLeft|ArrowLeft|ArrowLeft|ArrowLeft|ArrowRight|ArrowLeft|ArrowLeft|ArrowRight|ArrowLeft|ArrowRight|ArrowLeft|ArrowLeft|ArrowLeft|ArrowLeft|ArrowRight|ArrowLeft|ArrowLeft|ArrowRight||ArrowRight|ArrowRight|ArrowLeft|ArrowRight|ArrowRight|ArrowLeft|ArrowRight,Wed Jul 29 2020 13:21:51 GMT+0200 (Mitteleuropäische Sommerzeit),1596021711722,magnitude,13.835016666666666,3,main_experiment
1978,470|446|426|361|389|537|403|388|465|447|478|480|452|502|508|435|658|461|413|442|447|551|464|535|466|431|606|500|516|527|515|576|561|521|478|471|448|594|604|691|683|357|704|542|501|440|393|725,23,red|red|red|red|red|red|red|red|red|red|red|red|red|red|red|red|red|red|red|red|red|red|red|red|red|red|red|red|red|red|red|red|red|red|red|red|red|red|red|red|red|red|red|red|red|red|red|red,,Q|B|H|S|C|N,true|true|true|true|true|true,9|6|8|7|4|1|4|1|1|7|1|3|1|6|9|8|3|7|6|1|4|6|4|7|2|7|6|9|2|4|2|8|3|7|9|8|9|4|9|1|2|6|9|6|8|9|7|2,Abitur,1596022541823,ArrowRight|ArrowRight|ArrowRight|ArrowRight|ArrowLeft|ArrowLeft|ArrowLeft|ArrowLeft|ArrowLeft|ArrowRight|ArrowLeft|ArrowLeft|ArrowLeft|ArrowRight|ArrowRight|ArrowRight|ArrowLeft|ArrowRight|ArrowRight|ArrowLeft|ArrowLeft|ArrowRight|ArrowLeft|ArrowRight|ArrowLeft|ArrowRight|ArrowRight|ArrowRight|ArrowLeft|ArrowLeft|ArrowLeft|ArrowRight|ArrowLeft|ArrowRight|ArrowRight|ArrowRight|ArrowRight|ArrowLeft|ArrowRight|ArrowLeft|ArrowLeft|ArrowRight|ArrowRight|ArrowRight|ArrowRight|ArrowRight|ArrowRight|ArrowLeft,168,männlich,Deutsch,QBHSCN,7548,ArrowRight|ArrowRight|ArrowRight|ArrowRight|ArrowRight|ArrowLeft|ArrowLeft|ArrowLeft|ArrowLeft|ArrowRight|ArrowLeft|ArrowLeft|ArrowLeft|ArrowRight|ArrowRight|ArrowRight|ArrowLeft|ArrowRight|ArrowRight|ArrowLeft|ArrowLeft|ArrowRight|ArrowLeft|ArrowRight|ArrowLeft|ArrowRight|ArrowRight|ArrowRight|ArrowLeft|ArrowLeft|ArrowLeft|ArrowRight|ArrowLeft|ArrowRight|ArrowRight|ArrowRight|ArrowRight|ArrowLeft|ArrowRight|ArrowLeft|ArrowLeft|ArrowLeft|ArrowRight|ArrowRight|ArrowRight|ArrowRight|ArrowRight|ArrowLeft,Wed Jul 29 2020 13:21:51 GMT+0200 (Mitteleuropäische Sommerzeit),1596021711722,magnitude,13.835016666666666,4,main_experiment
1978,819|778|782|609|693|502|||871|403|761|736|735||579|654|722|704|732|609|714|615|778|626|||790|446|420|885||555,23,blue|red|blue|red|red|red|blue|red|blue|blue|red|red|blue|red|blue|blue|blue|red|red|red|blue|red|blue|blue|blue|red|blue|blue|blue|red|red|red,,N|G|Q|L,true|true|true|true,1|9|2|4|6|8|2|6|1|6|7|2|1|9|1|9|8|6|1|8|1|7|2|8|7|4|3|9|8|9|3|1,Abitur,1596022541823,ArrowLeft|ArrowRight|ArrowRight|ArrowLeft|ArrowRight|ArrowRight|ArrowRight|ArrowRight|ArrowLeft|ArrowRight|ArrowRight|ArrowLeft|ArrowLeft|ArrowRight|ArrowLeft|ArrowLeft|ArrowRight|ArrowRight|ArrowLeft|ArrowRight|ArrowLeft|ArrowRight|ArrowRight|ArrowRight|ArrowLeft|ArrowLeft|ArrowLeft|ArrowLeft|ArrowRight|ArrowRight|ArrowLeft|ArrowLeft,168,männlich,Deutsch,NGQL,5442,ArrowLeft|ArrowRight|ArrowLeft|ArrowLeft|ArrowRight|ArrowRight|||ArrowLeft|ArrowLeft|ArrowRight|ArrowLeft|ArrowRight||ArrowLeft|ArrowLeft|ArrowRight|ArrowLeft|ArrowLeft|ArrowRight|ArrowLeft|ArrowRight|ArrowRight|ArrowRight|||ArrowRight|ArrowLeft|ArrowLeft|ArrowRight||ArrowLeft,Wed Jul 29 2020 13:21:51 GMT+0200 (Mitteleuropäische Sommerzeit),1596021711722,mixed,13.835016666666666,5,main_experiment
1978,653|481|448|580|548|496|437|526|769|540|517|484|441|594|748|564|812|543|515|580|602|536|658|550||551|485|498|553|652|620|579|513|498|753|561|505|515|611||707||485|||||,23,blue|blue|blue|blue|blue|blue|blue|blue|blue|blue|blue|blue|blue|blue|blue|blue|blue|blue|blue|blue|blue|blue|blue|blue|blue|blue|blue|blue|blue|blue|blue|blue|blue|blue|blue|blue|blue|blue|blue|blue|blue|blue|blue|blue|blue|blue|blue|blue,,H|M|T|Z|X|C,true|false|false|true|true|false,7|1|7|4|6|4|6|8|4|1|2|4|2|6|2|1|3|1|2|3|1|9|8|3|6|3|6|4|1|8|9|6|2|7|3|9|6|4|1|8|8|1|7|8|1|6|7|6,Abitur,1596022541823,ArrowLeft|ArrowLeft|ArrowLeft|ArrowRight|ArrowRight|ArrowRight|ArrowRight|ArrowRight|ArrowRight|ArrowLeft|ArrowRight|ArrowRight|ArrowRight|ArrowRight|ArrowRight|ArrowLeft|ArrowLeft|ArrowLeft|ArrowRight|ArrowLeft|ArrowLeft|ArrowLeft|ArrowRight|ArrowLeft|ArrowRight|ArrowLeft|ArrowRight|ArrowRight|ArrowLeft|ArrowRight|ArrowLeft|ArrowRight|ArrowRight|ArrowLeft|ArrowLeft|ArrowLeft|ArrowRight|ArrowRight|ArrowLeft|ArrowRight|ArrowRight|ArrowLeft|ArrowLeft|ArrowRight|ArrowLeft|ArrowRight|ArrowLeft|ArrowRight,168,männlich,Deutsch,HTMZXT,6615,ArrowLeft|ArrowLeft|ArrowLeft|ArrowRight|ArrowRight|ArrowRight|ArrowRight|ArrowRight|ArrowRight|ArrowLeft|ArrowRight|ArrowRight|ArrowRight|ArrowRight|ArrowRight|ArrowLeft|ArrowRight|ArrowLeft|ArrowRight|ArrowLeft|ArrowLeft|ArrowRight|ArrowRight|ArrowLeft||ArrowLeft|ArrowRight|ArrowRight|ArrowLeft|ArrowRight|ArrowLeft|ArrowRight|ArrowLeft|ArrowLeft|ArrowRight|ArrowLeft|ArrowRight|ArrowRight|ArrowLeft||ArrowRight||ArrowLeft|||||,Wed Jul 29 2020 13:21:51 GMT+0200 (Mitteleuropäische Sommerzeit),1596021711722,parity,13.835016666666666,6,main_experiment
1978,486|481|452|448|536|485|669|480|431|415|418||452|407|||832|749|572|482|583|547|436|527|||444|389|488|500|442|353,23,red|red|red|red|red|red|red|red|red|red|red|red|red|red|red|red|red|red|red|red|red|red|red|red|red|red|red|red|red|red|red|red,,X|D|C|L,true|true|true|true,3|6|1|3|4|9|6|9|9|6|7|2|3|4|2|6|1|7|2|7|1|8|9|2|3|7|9|1|2|7|2|8,Abitur,1596022541823,ArrowLeft|ArrowRight|ArrowLeft|ArrowLeft|ArrowLeft|ArrowRight|ArrowRight|ArrowRight|ArrowRight|ArrowRight|ArrowRight|ArrowLeft|ArrowLeft|ArrowLeft|ArrowLeft|ArrowRight|ArrowLeft|ArrowRight|ArrowLeft|ArrowRight|ArrowLeft|ArrowRight|ArrowRight|ArrowLeft|ArrowLeft|ArrowRight|ArrowRight|ArrowLeft|ArrowLeft|ArrowRight|ArrowLeft|ArrowRight,168,männlich,Deutsch,XDCL,6833,ArrowLeft|ArrowRight|ArrowLeft|ArrowLeft|ArrowLeft|ArrowRight|ArrowRight|ArrowRight|ArrowRight|ArrowRight|ArrowRight||ArrowLeft|ArrowLeft|||ArrowLeft|ArrowRight|ArrowLeft|ArrowRight|ArrowLeft|ArrowRight|ArrowRight|ArrowLeft|||ArrowRight|ArrowLeft|ArrowLeft|ArrowRight|ArrowLeft|ArrowRight,Wed Jul 29 2020 13:21:51 GMT+0200 (Mitteleuropäische Sommerzeit),1596021711722,magnitude,13.835016666666666,7,main_experiment
1978,803|469|418|483|733|612|674|752|679|558|526|408|764|506|572|619|739|618|517|613|704|571|638|582|||347||770|524|550|575,23,blue|blue|blue|blue|blue|blue|blue|blue|blue|blue|blue|blue|blue|blue|blue|blue|blue|blue|blue|blue|blue|blue|blue|blue|blue|blue|blue|blue|blue|blue|blue|blue,,R|C|G|X,true|true|true|false,4|6|4|9|8|6|7|1|9|2|9|2|7|1|9|2|6|8|1|4|9|7|1|2|4|7|4|9|7|8|6|2,Abitur,1596022541823,ArrowRight|ArrowRight|ArrowRight|ArrowLeft|ArrowRight|ArrowRight|ArrowLeft|ArrowLeft|ArrowLeft|ArrowRight|ArrowLeft|ArrowRight|ArrowLeft|ArrowLeft|ArrowLeft|ArrowRight|ArrowRight|ArrowRight|ArrowLeft|ArrowRight|ArrowLeft|ArrowLeft|ArrowLeft|ArrowRight|ArrowRight|ArrowLeft|ArrowRight|ArrowLeft|ArrowLeft|ArrowRight|ArrowRight|ArrowRight,168,männlich,Deutsch,RCGZ,6547,ArrowLeft|ArrowRight|ArrowRight|ArrowLeft|ArrowRight|ArrowRight|ArrowLeft|ArrowLeft|ArrowLeft|ArrowRight|ArrowLeft|ArrowRight|ArrowLeft|ArrowLeft|ArrowLeft|ArrowRight|ArrowLeft|ArrowRight|ArrowLeft|ArrowRight|ArrowLeft|ArrowLeft|ArrowLeft|ArrowRight|||ArrowLeft||ArrowLeft|ArrowRight|ArrowLeft|ArrowLeft,Wed Jul 29 2020 13:21:51 GMT+0200 (Mitteleuropäische Sommerzeit),1596021711722,parity,13.835016666666666,8,main_experiment
1967,|||||||||||||||||||||||,56,red|red|red|red|red|red|red|red|red|red|red|red|red|red|red|red|red|red|red|red|red|red|red|red,,K|Z|D,true|true|true,3|8|4|8|3|2|1|4|7|2|7|6|4|3|9|3|7|6|3|9|1|7|8|7,Hochschulabschluss,1595954246452,ArrowLeft|ArrowRight|ArrowLeft|ArrowRight|ArrowLeft|ArrowLeft|ArrowLeft|ArrowLeft|ArrowRight|ArrowLeft|ArrowRight|ArrowRight|ArrowLeft|ArrowLeft|ArrowRight|ArrowLeft|ArrowRight|ArrowRight|ArrowLeft|ArrowRight|ArrowLeft|ArrowRight|ArrowRight|ArrowRight,168,weiblich,deutsch,KZD,9155,|||||||||||||||||||||||,Tue Jul 28 2020 18:24:09 GMT+0200 (Mitteleuropäische Sommerzeit),1595953449121,magnitude,13.28885,0,first_practice
1967,,56,red|red|red|red|red|red|red|red,,W,,6|1|3|7|1|9|3|6,Hochschulabschluss,1595954246452,ArrowRight|ArrowLeft|ArrowLeft|ArrowRight|ArrowLeft|ArrowRight|ArrowLeft|ArrowRight,168,weiblich,deutsch,,,,Tue Jul 28 2020 18:24:09 GMT+0200 (Mitteleuropäische Sommerzeit),1595953449121,magnitude,13.28885,0,second_practice
1967,,56,blue|blue|blue|blue|blue|blue|blue|blue,,Z,,3|7|2|9|2|8|1|3,Hochschulabschluss,1595954246452,ArrowLeft|ArrowLeft|ArrowRight|ArrowLeft|ArrowRight|ArrowRight|ArrowLeft|ArrowLeft,168,weiblich,deutsch,,,,Tue Jul 28 2020 18:24:09 GMT+0200 (Mitteleuropäische Sommerzeit),1595953449121,parity,13.28885,1,second_practice
1967,,56,blue|blue|blue|red|blue|blue|blue|blue,,G,,7|3|1|9|7|8|9|7,Hochschulabschluss,1595954246452,ArrowLeft|ArrowLeft|ArrowLeft|ArrowRight|ArrowLeft|ArrowRight|ArrowLeft|ArrowLeft,168,weiblich,deutsch,,,,Tue Jul 28 2020 18:24:09 GMT+0200 (Mitteleuropäische Sommerzeit),1595953449121,mixed,13.28885,2,second_practice
1967,|||||||||||||||||||||||,56,blue|blue|red|blue|red|blue|blue|blue|red|blue|blue|blue|blue|blue|red|red|blue|blue|blue|red|blue|blue|red|red,,L|J|K,true|true|true,1|7|6|4|2|7|1|9|6|8|6|7|6|9|1|3|4|1|4|1|8|2|4|9,Hochschulabschluss,1595954246452,ArrowLeft|ArrowLeft|ArrowRight|ArrowRight|ArrowLeft|ArrowLeft|ArrowLeft|ArrowLeft|ArrowRight|ArrowRight|ArrowRight|ArrowLeft|ArrowRight|ArrowLeft|ArrowLeft|ArrowLeft|ArrowRight|ArrowLeft|ArrowRight|ArrowLeft|ArrowRight|ArrowRight|ArrowLeft|ArrowRight,168,weiblich,deutsch,LJK,10786,|||||||||||||||||||||||,Tue Jul 28 2020 18:24:09 GMT+0200 (Mitteleuropäische Sommerzeit),1595953449121,mixed,13.28885,0,third_practice
1967,794|512|469|579|485|524|601|468|517|486|891|607|492|596|579|565|532|631|560|608|512|554|832|518|665|498|626|635|15|665|646|620|588|805|790|594|705|553|833|571,56,blue|blue|blue|blue|blue|blue|blue|blue|blue|blue|blue|blue|blue|blue|blue|blue|blue|blue|blue|blue|blue|blue|blue|blue|blue|blue|blue|blue|blue|blue|blue|blue|blue|blue|blue|blue|blue|blue|blue|blue,,M|Y|Z|J|L,true|true|true|false|false,2|6|2|3|6|2|8|9|2|1|4|3|2|8|4|7|2|8|2|8|2|9|6|2|3|6|9|3|6|9|4|7|1|2|4|7|1|9|6|8,Hochschulabschluss,1595954246452,ArrowRight|ArrowRight|ArrowRight|ArrowLeft|ArrowRight|ArrowRight|ArrowRight|ArrowLeft|ArrowRight|ArrowLeft|ArrowRight|ArrowLeft|ArrowRight|ArrowRight|ArrowRight|ArrowLeft|ArrowRight|ArrowRight|ArrowRight|ArrowRight|ArrowRight|ArrowLeft|ArrowRight|ArrowRight|ArrowLeft|ArrowRight|ArrowLeft|ArrowLeft|ArrowRight|ArrowLeft|ArrowRight|ArrowLeft|ArrowLeft|ArrowRight|ArrowRight|ArrowLeft|ArrowLeft|ArrowLeft|ArrowRight|ArrowRight,168,weiblich,deutsch,MYZL?,35207,ArrowLeft|ArrowRight|ArrowLeft|ArrowLeft|ArrowRight|ArrowLeft|ArrowRight|ArrowRight|ArrowLeft|ArrowLeft|ArrowLeft|ArrowLeft|ArrowLeft|ArrowRight|ArrowLeft|ArrowRight|ArrowLeft|ArrowRight|ArrowLeft|ArrowRight|ArrowLeft|ArrowRight|ArrowRight|ArrowLeft|ArrowLeft|ArrowRight|ArrowRight|ArrowRight|ArrowLeft|ArrowRight|ArrowLeft|ArrowRight|ArrowLeft|ArrowLeft|ArrowLeft|ArrowRight|ArrowLeft|ArrowRight|ArrowRight|ArrowRight,Tue Jul 28 2020 18:24:09 GMT+0200 (Mitteleuropäische Sommerzeit),1595953449121,parity,13.28885,0,main_experiment
1967,778|535|475|505|561|24|478|485|607|536|836|554|615|661|565|789|409|460|486|516|682|682||741||735|537|848|752|628|633|793|822|554|647|645|601|542|598|783,56,blue|blue|red|red|blue|blue|blue|red|red|red|red|blue|blue|red|red|blue|blue|blue|red|red|red|red|blue|blue|blue|blue|red|red|blue|red|blue|red|red|red|blue|red|blue|blue|red|blue,,R|S|C|G|Z,true|true|true|true|true,3|7|2|9|6|3|9|2|1|9|3|2|7|8|1|4|6|2|3|9|2|9|6|8|7|4|9|4|3|2|9|6|6|1|3|1|2|7|1|7,Hochschulabschluss,1595954246452,ArrowLeft|ArrowLeft|ArrowLeft|ArrowRight|ArrowRight|ArrowLeft|ArrowLeft|ArrowLeft|ArrowLeft|ArrowRight|ArrowLeft|ArrowRight|ArrowLeft|ArrowRight|ArrowLeft|ArrowRight|ArrowRight|ArrowRight|ArrowLeft|ArrowRight|ArrowLeft|ArrowRight|ArrowRight|ArrowRight|ArrowLeft|ArrowRight|ArrowRight|ArrowLeft|ArrowLeft|ArrowLeft|ArrowLeft|ArrowRight|ArrowRight|ArrowLeft|ArrowLeft|ArrowLeft|ArrowRight|ArrowLeft|ArrowLeft|ArrowLeft,168,weiblich,deutsch,RSCGZ,11448,ArrowLeft|ArrowRight|ArrowLeft|ArrowRight|ArrowLeft|ArrowRight|ArrowRight|ArrowLeft|ArrowLeft|ArrowRight|ArrowLeft|ArrowLeft|ArrowRight|ArrowRight|ArrowLeft|ArrowLeft|ArrowRight|ArrowLeft|ArrowRight|ArrowRight|ArrowLeft|ArrowRight||ArrowRight||ArrowLeft|ArrowRight|ArrowLeft|ArrowLeft|ArrowLeft|ArrowRight|ArrowRight|ArrowLeft|ArrowLeft|ArrowLeft|ArrowLeft|ArrowLeft|ArrowRight|ArrowLeft|ArrowRight,Tue Jul 28 2020 18:24:09 GMT+0200 (Mitteleuropäische Sommerzeit),1595953449121,mixed,13.28885,1,main_experiment
1967,551||720|580|452|551|476|459|478|626||464|523|482|659|646|809|477|531|578|660|623||471|767|613|599|598|490|422|758|533|675||583|576|473|560|764|837|||171|207|183|450|566|846,56,blue|blue|red|red|red|red|red|red|red|red|red|red|red|blue|blue|blue|red|blue|blue|red|red|blue|blue|blue|blue|blue|red|blue|red|red|red|red|red|blue|blue|red|red|red|red|red|blue|blue|blue|blue|blue|blue|red|blue,,X|Y|J|C|Z|B,true|true|true|false|false|true,8|6|8|6|2|7|9|1|8|2|3|8|7|8|1|8|4|6|8|4|1|8|6|8|6|7|9|6|7|1|8|6|1|4|8|9|8|2|3|6|6|7|8|1|8|6|1|7,Hochschulabschluss,1595954246452,ArrowRight|ArrowRight|ArrowRight|ArrowRight|ArrowLeft|ArrowRight|ArrowRight|ArrowLeft|ArrowRight|ArrowLeft|ArrowLeft|ArrowRight|ArrowRight|ArrowRight|ArrowLeft|ArrowRight|ArrowLeft|ArrowRight|ArrowRight|ArrowLeft|ArrowLeft|ArrowRight|ArrowRight|ArrowRight|ArrowRight|ArrowLeft|ArrowRight|ArrowRight|ArrowRight|ArrowLeft|ArrowRight|ArrowRight|ArrowLeft|ArrowRight|ArrowRight|ArrowRight|ArrowRight|ArrowLeft|ArrowLeft|ArrowRight|ArrowRight|ArrowLeft|ArrowRight|ArrowLeft|ArrowRight|ArrowRight|ArrowLeft|ArrowLeft,168,weiblich,deutsch,XYJZCB,11526,ArrowRight||ArrowRight|ArrowRight|ArrowLeft|ArrowRight|ArrowRight|ArrowLeft|ArrowRight|ArrowLeft||ArrowRight|ArrowRight|ArrowRight|ArrowLeft|ArrowRight|ArrowLeft|ArrowRight|ArrowRight|ArrowLeft|ArrowLeft|ArrowRight||ArrowRight|ArrowRight|ArrowRight|ArrowRight|ArrowRight|ArrowRight|ArrowLeft|ArrowRight|ArrowRight|ArrowLeft||ArrowRight|ArrowRight|ArrowRight|ArrowLeft|ArrowLeft|ArrowRight|||ArrowRight|ArrowRight|ArrowLeft|ArrowRight|ArrowLeft|ArrowRight,Tue Jul 28 2020 18:24:09 GMT+0200 (Mitteleuropäische Sommerzeit),1595953449121,mixed,13.28885,2,main_experiment
1967,678|487|615|521|542|520|477|765|573|589|655|544|518|545|709|543|550|487|525|463|464|567|524|508|549|711|591|649|709||543|567|557|487|521|603|480|535|506|653,56,red|red|red|red|red|red|red|red|red|red|red|red|red|red|red|red|red|red|red|red|red|red|red|red|red|red|red|red|red|red|red|red|red|red|red|red|red|red|red|red,,J|X|N|C|F,true|true|true|true|true,4|6|4|6|4|2|1|6|7|1|4|7|9|1|6|7|8|1|6|1|6|9|6|9|9|6|3|7|8|3|7|2|2|9|8|3|9|8|1|8,Hochschulabschluss,1595954246452,ArrowLeft|ArrowRight|ArrowLeft|ArrowRight|ArrowLeft|ArrowLeft|ArrowLeft|ArrowRight|ArrowRight|ArrowLeft|ArrowLeft|ArrowRight|ArrowRight|ArrowLeft|ArrowRight|ArrowRight|ArrowRight|ArrowLeft|ArrowRight|ArrowLeft|ArrowRight|ArrowRight|ArrowRight|ArrowRight|ArrowRight|ArrowRight|ArrowLeft|ArrowRight|ArrowRight|ArrowLeft|ArrowRight|ArrowLeft|ArrowLeft|ArrowRight|ArrowRight|ArrowLeft|ArrowRight|ArrowRight|ArrowLeft|ArrowRight,168,weiblich,deutsch,JXNCF,8969,ArrowLeft|ArrowRight|ArrowLeft|ArrowRight|ArrowLeft|ArrowLeft|ArrowLeft|ArrowRight|ArrowRight|ArrowLeft|ArrowLeft|ArrowRight|ArrowRight|ArrowLeft|ArrowRight|ArrowRight|ArrowRight|ArrowLeft|ArrowRight|ArrowLeft|ArrowRight|ArrowRight|ArrowRight|ArrowRight|ArrowRight|ArrowRight|ArrowLeft|ArrowRight|ArrowRight||ArrowRight|ArrowLeft|ArrowLeft|ArrowRight|ArrowRight|ArrowLeft|ArrowRight|ArrowRight|ArrowLeft|ArrowRight,Tue Jul 28 2020 18:24:09 GMT+0200 (Mitteleuropäische Sommerzeit),1595953449121,magnitude,13.28885,3,main_experiment
1967,681|597|556|483|569|511|809|539|496|672|692|534|521|609|552|567|597|888|463|475|562|471||509|408|709|655|456|619|800|594|522,56,red|red|red|red|red|red|red|red|red|red|red|red|red|red|red|red|red|red|red|red|red|red|red|red|red|red|red|red|red|red|red|red,,X|Q|Z|Y,true|true|true|true,6|4|3|9|4|9|6|4|2|4|6|7|1|9|7|2|7|6|7|8|2|9|8|6|1|7|4|8|4|1|2|9,Hochschulabschluss,1595954246452,ArrowRight|ArrowLeft|ArrowLeft|ArrowRight|ArrowLeft|ArrowRight|ArrowRight|ArrowLeft|ArrowLeft|ArrowLeft|ArrowRight|ArrowRight|ArrowLeft|ArrowRight|ArrowRight|ArrowLeft|ArrowRight|ArrowRight|ArrowRight|ArrowRight|ArrowLeft|ArrowRight|ArrowRight|ArrowRight|ArrowLeft|ArrowRight|ArrowLeft|ArrowRight|ArrowLeft|ArrowLeft|ArrowLeft|ArrowRight,168,weiblich,deutsch,XQZY,10318,ArrowRight|ArrowLeft|ArrowLeft|ArrowRight|ArrowLeft|ArrowRight|ArrowRight|ArrowLeft|ArrowLeft|ArrowLeft|ArrowRight|ArrowRight|ArrowLeft|ArrowRight|ArrowRight|ArrowLeft|ArrowRight|ArrowRight|ArrowRight|ArrowRight|ArrowLeft|ArrowRight||ArrowRight|ArrowLeft|ArrowRight|ArrowLeft|ArrowRight|ArrowLeft|ArrowLeft|ArrowLeft|ArrowRight,Tue Jul 28 2020 18:24:09 GMT+0200 (Mitteleuropäische Sommerzeit),1595953449121,magnitude,13.28885,4,main_experiment
1967,|131|243|226|199|523|221|326|553|523|600|666|694|574|549|584|714|464|435|463|665|702|633|463|440|703|3|505|619|492|499|522,56,blue|red|red|blue|red|red|red|blue|red|red|red|red|blue|red|blue|red|red|red|red|red|red|blue|blue|red|blue|red|blue|blue|red|blue|red|blue,,L|W|R|Q,true|true|true|true,3|9|2|8|3|7|2|1|3|1|3|1|7|4|3|9|7|8|7|2|7|9|3|7|1|4|1|2|8|1|9|8,Hochschulabschluss,1595954246452,ArrowLeft|ArrowRight|ArrowLeft|ArrowRight|ArrowLeft|ArrowRight|ArrowLeft|ArrowLeft|ArrowLeft|ArrowLeft|ArrowLeft|ArrowLeft|ArrowLeft|ArrowLeft|ArrowLeft|ArrowRight|ArrowRight|ArrowRight|ArrowRight|ArrowLeft|ArrowRight|ArrowLeft|ArrowLeft|ArrowRight|ArrowLeft|ArrowLeft|ArrowLeft|ArrowRight|ArrowRight|ArrowLeft|ArrowRight|ArrowRight,168,weiblich,deutsch,LWRQ,9411,|ArrowLeft|ArrowRight|ArrowLeft|ArrowRight|ArrowLeft|ArrowRight|ArrowLeft|ArrowLeft|ArrowLeft|ArrowLeft|ArrowLeft|ArrowRight|ArrowLeft|ArrowLeft|ArrowRight|ArrowRight|ArrowRight|ArrowRight|ArrowLeft|ArrowRight|ArrowRight|ArrowLeft|ArrowRight|ArrowLeft|ArrowRight|ArrowLeft|ArrowLeft|ArrowRight|ArrowLeft|ArrowRight|ArrowRight,Tue Jul 28 2020 18:24:09 GMT+0200 (Mitteleuropäische Sommerzeit),1595953449121,mixed,13.28885,5,main_experiment
1967,755|549|457|606|795|443|611|802||545|494|608|447|495|684|522||255|387|481|537|567|778|605|723|471|485||294|176|278|652|846|487|456|594|685|650||553|566|464|580|484|488|601|479|603,56,blue|blue|blue|blue|blue|blue|blue|blue|blue|blue|blue|blue|blue|blue|blue|blue|blue|blue|blue|blue|blue|blue|blue|blue|blue|blue|blue|blue|blue|blue|blue|blue|blue|blue|blue|blue|blue|blue|blue|blue|blue|blue|blue|blue|blue|blue|blue|blue,,F|L|R|V|G|Q,true|false|false|false|true|false,3|1|3|9|7|8|3|1|3|7|6|4|9|2|3|7|4|8|3|2|9|2|3|4|7|8|1|6|7|4|1|7|7|6|9|1|4|6|3|4|6|9|6|9|1|7|9|3,Hochschulabschluss,1595954246452,ArrowLeft|ArrowLeft|ArrowLeft|ArrowLeft|ArrowLeft|ArrowRight|ArrowLeft|ArrowLeft|ArrowLeft|ArrowLeft|ArrowRight|ArrowRight|ArrowLeft|ArrowRight|ArrowLeft|ArrowLeft|ArrowRight|ArrowRight|ArrowLeft|ArrowRight|ArrowLeft|ArrowRight|ArrowLeft|ArrowRight|ArrowLeft|ArrowRight|ArrowLeft|ArrowRight|ArrowLeft|ArrowRight|ArrowLeft|ArrowLeft|ArrowLeft|ArrowRight|ArrowLeft|ArrowLeft|ArrowRight|ArrowRight|ArrowLeft|ArrowRight|ArrowRight|ArrowLeft|ArrowRight|ArrowLeft|ArrowLeft|ArrowLeft|ArrowLeft|ArrowLeft,168,weiblich,deutsch,FWLRGV,10793,ArrowRight|ArrowLeft|ArrowLeft|ArrowRight|ArrowRight|ArrowRight|ArrowLeft|ArrowLeft||ArrowRight|ArrowRight|ArrowLeft|ArrowRight|ArrowLeft|ArrowLeft|ArrowRight||ArrowLeft|ArrowRight|ArrowLeft|ArrowRight|ArrowLeft|ArrowLeft|ArrowLeft|ArrowRight|ArrowRight|ArrowLeft||ArrowRight|ArrowRight|ArrowLeft|ArrowRight|ArrowRight|ArrowRight|ArrowRight|ArrowLeft|ArrowLeft|ArrowRight||ArrowLeft|ArrowRight|ArrowRight|ArrowRight|ArrowRight|ArrowLeft|ArrowRight|ArrowRight|ArrowLeft,Tue Jul 28 2020 18:24:09 GMT+0200 (Mitteleuropäische Sommerzeit),1595953449121,parity,13.28885,6,main_experiment
1967,|522|426|423|531|575|759|486|466|553|383|674|479|715|443|723|580|872|128|581|488|485|707|651|519|518|504|548|459|449|509|455|640|545|536|640|678|494|482|407|506|461|680|726|494|805|464|820,56,red|red|red|red|red|red|red|red|red|red|red|red|red|red|red|red|red|red|red|red|red|red|red|red|red|red|red|red|red|red|red|red|red|red|red|red|red|red|red|red|red|red|red|red|red|red|red|red,,N|K|X|Q|G|Y,true|true|true|true|true|true,2|8|9|6|1|8|2|3|1|2|3|4|6|8|1|8|9|3|1|8|6|2|7|4|8|9|1|2|1|8|9|3|9|3|2|9|3|4|6|1|9|7|4|3|8|4|8|6,Hochschulabschluss,1595954246452,ArrowLeft|ArrowRight|ArrowRight|ArrowRight|ArrowLeft|ArrowRight|ArrowLeft|ArrowLeft|ArrowLeft|ArrowLeft|ArrowLeft|ArrowLeft|ArrowRight|ArrowRight|ArrowLeft|ArrowRight|ArrowRight|ArrowLeft|ArrowLeft|ArrowRight|ArrowRight|ArrowLeft|ArrowRight|ArrowLeft|ArrowRight|ArrowRight|ArrowLeft|ArrowLeft|ArrowLeft|ArrowRight|ArrowRight|ArrowLeft|ArrowRight|ArrowLeft|ArrowLeft|ArrowRight|ArrowLeft|ArrowLeft|ArrowRight|ArrowLeft|ArrowRight|ArrowRight|ArrowLeft|ArrowLeft|ArrowRight|ArrowLeft|ArrowRight|ArrowRight,168,weiblich,deutsch,NKXQGY,12882,|ArrowRight|ArrowRight|ArrowRight|ArrowLeft|ArrowRight|ArrowLeft|ArrowRight|ArrowLeft|ArrowLeft|ArrowLeft|ArrowLeft|ArrowRight|ArrowRight|ArrowLeft|ArrowRight|ArrowRight|ArrowRight|ArrowLeft|ArrowRight|ArrowRight|ArrowLeft|ArrowRight|ArrowLeft|ArrowRight|ArrowRight|ArrowLeft|ArrowLeft|ArrowLeft|ArrowRight|ArrowRight|ArrowLeft|ArrowRight|ArrowLeft|ArrowLeft|ArrowRight|ArrowLeft|ArrowLeft|ArrowRight|ArrowLeft|ArrowRight|ArrowRight|ArrowLeft|ArrowLeft|ArrowRight|ArrowLeft|ArrowRight|ArrowRight,Tue Jul 28 2020 18:24:09 GMT+0200 (Mitteleuropäische Sommerzeit),1595953449121,magnitude,13.28885,7,main_experiment
1967,709|466|570|599|526|529|701|689|541|481|424|482|532|451|600|583|495|373|470|894|539|427|669|538|518|469|465|596|657|651|544|445,56,blue|blue|blue|blue|blue|blue|blue|blue|blue|blue|blue|blue|blue|blue|blue|blue|blue|blue|blue|blue|blue|blue|blue|blue|blue|blue|blue|blue|blue|blue|blue|blue,,C|B|Q|H,true|true|true|true,3|2|8|2|1|9|3|1|7|8|2|9|4|9|4|8|2|8|9|7|6|2|3|8|9|8|9|2|6|3|4|3,Hochschulabschluss,1595954246452,ArrowLeft|ArrowRight|ArrowRight|ArrowRight|ArrowLeft|ArrowLeft|ArrowLeft|ArrowLeft|ArrowLeft|ArrowRight|ArrowRight|ArrowLeft|ArrowRight|ArrowLeft|ArrowRight|ArrowRight|ArrowRight|ArrowRight|ArrowLeft|ArrowLeft|ArrowRight|ArrowRight|ArrowLeft|ArrowRight|ArrowLeft|ArrowRight|ArrowLeft|ArrowRight|ArrowRight|ArrowLeft|ArrowRight|ArrowLeft,168,weiblich,deutsch,CBQH,8119,ArrowLeft|ArrowLeft|ArrowRight|ArrowLeft|ArrowLeft|ArrowRight|ArrowLeft|ArrowLeft|ArrowRight|ArrowRight|ArrowLeft|ArrowRight|ArrowLeft|ArrowRight|ArrowLeft|ArrowRight|ArrowLeft|ArrowRight|ArrowRight|ArrowRight|ArrowRight|ArrowLeft|ArrowLeft|ArrowRight|ArrowRight|ArrowRight|ArrowRight|ArrowLeft|ArrowRight|ArrowLeft|ArrowLeft|ArrowLeft,Tue Jul 28 2020 18:24:09 GMT+0200 (Mitteleuropäische Sommerzeit),1595953449121,parity,13.28885,8,main_experiment
1957,|||||||||||||||||||||||,21,red|red|red|red|red|red|red|red|red|red|red|red|red|red|red|red|red|red|red|red|red|red|red|red,War geilo,M|W|H,true|true|true,7|6|8|4|6|8|4|8|8|4|6|4|1|3|7|2|3|2|7|4|6|2|4|6,Abitur,1595940113879,ArrowRight|ArrowRight|ArrowRight|ArrowLeft|ArrowRight|ArrowRight|ArrowLeft|ArrowRight|ArrowRight|ArrowLeft|ArrowRight|ArrowLeft|ArrowLeft|ArrowLeft|ArrowRight|ArrowLeft|ArrowLeft|ArrowLeft|ArrowRight|ArrowLeft|ArrowRight|ArrowLeft|ArrowLeft|ArrowRight,168,männlich,Deutsch,MWH,3935,|||||||||||||||||||||||,Tue Jul 28 2020 14:29:40 GMT+0200 (Mitteleuropäische Sommerzeit),1595939380331,magnitude,12.2258,0,first_practice
1957,,21,red|red|red|red|red|red|red|red,War geilo,J,,1|7|3|1|4|1|4|7,Abitur,1595940113879,ArrowLeft|ArrowRight|ArrowLeft|ArrowLeft|ArrowLeft|ArrowLeft|ArrowLeft|ArrowRight,168,männlich,Deutsch,,,,Tue Jul 28 2020 14:29:40 GMT+0200 (Mitteleuropäische Sommerzeit),1595939380331,magnitude,12.2258,0,second_practice
1957,,21,blue|blue|blue|blue|blue|blue|blue|blue,War geilo,L,,7|1|9|8|1|4|8|3,Abitur,1595940113879,ArrowLeft|ArrowLeft|ArrowLeft|ArrowRight|ArrowLeft|ArrowRight|ArrowRight|ArrowLeft,168,männlich,Deutsch,,,,Tue Jul 28 2020 14:29:40 GMT+0200 (Mitteleuropäische Sommerzeit),1595939380331,parity,12.2258,1,second_practice
1957,,21,red|blue|red|blue|red|blue|blue|red,War geilo,L,,1|4|2|3|6|4|8|3,Abitur,1595940113879,ArrowLeft|ArrowRight|ArrowLeft|ArrowLeft|ArrowRight|ArrowRight|ArrowRight|ArrowLeft,168,männlich,Deutsch,,,,Tue Jul 28 2020 14:29:40 GMT+0200 (Mitteleuropäische Sommerzeit),1595939380331,mixed,12.2258,2,second_practice
1957,777|571|578|541|508|863|670|627|706|528|698|612||817|635|627|583|752|649|772|753|739||824,21,red|red|red|red|red|blue|blue|blue|blue|red|blue|blue|red|blue|red|red|red|blue|blue|blue|red|blue|blue|red,War geilo,L|H|N,true|true|true,8|7|9|6|4|9|7|1|3|7|6|1|4|2|1|9|3|9|2|3|4|7|4|9,Abitur,1595940113879,ArrowRight|ArrowRight|ArrowRight|ArrowRight|ArrowLeft|ArrowLeft|ArrowLeft|ArrowLeft|ArrowLeft|ArrowRight|ArrowRight|ArrowLeft|ArrowLeft|ArrowRight|ArrowLeft|ArrowRight|ArrowLeft|ArrowLeft|ArrowRight|ArrowLeft|ArrowLeft|ArrowLeft|ArrowRight|ArrowRight,168,männlich,Deutsch,LHN,8802,ArrowRight|ArrowRight|ArrowRight|ArrowRight|ArrowLeft|ArrowRight|ArrowLeft|ArrowLeft|ArrowLeft|ArrowRight|ArrowRight|ArrowLeft||ArrowRight|ArrowLeft|ArrowRight|ArrowLeft|ArrowLeft|ArrowRight|ArrowLeft|ArrowLeft|ArrowRight||ArrowLeft,Tue Jul 28 2020 14:29:40 GMT+0200 (Mitteleuropäische Sommerzeit),1595939380331,mixed,12.2258,0,third_practice
1957,616|535|593|575|597|527|648|557|657|531|643|558|659|632|685|676|520|545|716|610|632|709|646|623|505|599|597|620|776|570|479|581|541||624|680|732|814|733|525|600|641|642|556|565|642|691|665,21,blue|blue|blue|blue|blue|blue|blue|blue|blue|blue|blue|blue|blue|blue|blue|blue|blue|blue|blue|blue|blue|blue|blue|blue|blue|blue|blue|blue|blue|blue|blue|blue|blue|blue|blue|blue|blue|blue|blue|blue|blue|blue|blue|blue|blue|blue|blue|blue,War geilo,Z|V|N|C|Q|J,true|true|true|true|true|true,3|6|8|7|3|8|7|6|4|9|3|2|4|9|7|3|7|6|2|7|2|1|8|2|2|3|8|1|7|6|1|4|8|9|7|2|6|8|1|8|1|2|8|7|3|6|4|1,Abitur,1595940113879,ArrowLeft|ArrowRight|ArrowRight|ArrowLeft|ArrowLeft|ArrowRight|ArrowLeft|ArrowRight|ArrowRight|ArrowLeft|ArrowLeft|ArrowRight|ArrowRight|ArrowLeft|ArrowLeft|ArrowLeft|ArrowLeft|ArrowRight|ArrowRight|ArrowLeft|ArrowRight|ArrowLeft|ArrowRight|ArrowRight|ArrowRight|ArrowLeft|ArrowRight|ArrowLeft|ArrowLeft|ArrowRight|ArrowLeft|ArrowRight|ArrowRight|ArrowLeft|ArrowLeft|ArrowRight|ArrowRight|ArrowRight|ArrowLeft|ArrowRight|ArrowLeft|ArrowRight|ArrowRight|ArrowLeft|ArrowLeft|ArrowRight|ArrowRight|ArrowLeft,168,männlich,Deutsch,ZVNCQJ,7273,ArrowLeft|ArrowRight|ArrowRight|ArrowLeft|ArrowLeft|ArrowRight|ArrowLeft|ArrowRight|ArrowRight|ArrowLeft|ArrowLeft|ArrowRight|ArrowRight|ArrowLeft|ArrowLeft|ArrowLeft|ArrowLeft|ArrowRight|ArrowRight|ArrowLeft|ArrowRight|ArrowLeft|ArrowRight|ArrowRight|ArrowRight|ArrowLeft|ArrowRight|ArrowLeft|ArrowLeft|ArrowRight|ArrowLeft|ArrowRight|ArrowRight||ArrowLeft|ArrowRight|ArrowRight|ArrowLeft|ArrowLeft|ArrowRight|ArrowLeft|ArrowRight|ArrowRight|ArrowLeft|ArrowLeft|ArrowRight|ArrowRight|ArrowLeft,Tue Jul 28 2020 14:29:40 GMT+0200 (Mitteleuropäische Sommerzeit),1595939380331,parity,12.2258,0,main_experiment
1957,612|600|520|619|693|579|593|854|448|446|520|536|435|476|439|568|510|548|624|499|519|583|499|653|482|504|518|561|618|463|511|499|516|554|718|581|501|492|537|594|458|537|604|601|666|669|667|739,21,red|red|red|red|red|red|red|red|red|red|red|red|red|red|red|red|red|red|red|red|red|red|red|red|red|red|red|red|red|red|red|red|red|red|red|red|red|red|red|red|red|red|red|red|red|red|red|red,War geilo,Z|B|V|S|L|N,true|true|true|true|true|true,2|7|3|7|4|2|6|7|7|4|7|8|4|8|1|6|9|6|7|4|3|2|3|7|3|7|6|9|7|1|8|2|4|8|4|8|4|2|3|6|8|1|6|8|7|3|6|9,Abitur,1595940113879,ArrowLeft|ArrowRight|ArrowLeft|ArrowRight|ArrowLeft|ArrowLeft|ArrowRight|ArrowRight|ArrowRight|ArrowLeft|ArrowRight|ArrowRight|ArrowLeft|ArrowRight|ArrowLeft|ArrowRight|ArrowRight|ArrowRight|ArrowRight|ArrowLeft|ArrowLeft|ArrowLeft|ArrowLeft|ArrowRight|ArrowLeft|ArrowRight|ArrowRight|ArrowRight|ArrowRight|ArrowLeft|ArrowRight|ArrowLeft|ArrowLeft|ArrowRight|ArrowLeft|ArrowRight|ArrowLeft|ArrowLeft|ArrowLeft|ArrowRight|ArrowRight|ArrowLeft|ArrowRight|ArrowRight|ArrowRight|ArrowLeft|ArrowRight|ArrowRight,168,männlich,Deutsch,ZBVSLN,10788,ArrowRight|ArrowRight|ArrowLeft|ArrowRight|ArrowLeft|ArrowLeft|ArrowRight|ArrowRight|ArrowRight|ArrowLeft|ArrowRight|ArrowRight|ArrowLeft|ArrowRight|ArrowLeft|ArrowRight|ArrowRight|ArrowRight|ArrowRight|ArrowLeft|ArrowLeft|ArrowLeft|ArrowLeft|ArrowRight|ArrowLeft|ArrowRight|ArrowRight|ArrowRight|ArrowRight|ArrowLeft|ArrowRight|ArrowLeft|ArrowLeft|ArrowRight|ArrowLeft|ArrowRight|ArrowLeft|ArrowLeft|ArrowLeft|ArrowRight|ArrowLeft|ArrowLeft|ArrowRight|ArrowRight|ArrowLeft|ArrowLeft|ArrowRight|ArrowRight,Tue Jul 28 2020 14:29:40 GMT+0200 (Mitteleuropäische Sommerzeit),1595939380331,magnitude,12.2258,1,main_experiment
1957,460|712||743|575|677|646|685|624|539|603|690|788|689|800|690|517|572|774|768|881|701|760|602|470|687|637||652|833|839|740|488|615|756|705|729|657|809|882|534|674|785|718|757|755|756|672,21,blue|red|red|blue|blue|blue|red|blue|blue|blue|blue|red|blue|blue|red|red|blue|blue|blue|red|blue|blue|blue|red|red|red|red|blue|blue|red|red|blue|red|red|blue|red|blue|blue|red|blue|red|blue|red|red|red|blue|red|red,War geilo,S|N|L|D|X|V,false|false|false|true|false|false,1|7|6|2|4|7|6|8|6|1|6|9|7|9|7|8|3|6|9|3|9|2|3|8|3|2|9|3|1|7|4|6|1|4|8|2|3|1|2|4|3|1|3|6|3|6|3|6,Abitur,1595940113879,ArrowLeft|ArrowRight|ArrowRight|ArrowRight|ArrowRight|ArrowLeft|ArrowRight|ArrowRight|ArrowRight|ArrowLeft|ArrowRight|ArrowRight|ArrowLeft|ArrowLeft|ArrowRight|ArrowRight|ArrowLeft|ArrowRight|ArrowLeft|ArrowLeft|ArrowLeft|ArrowRight|ArrowLeft|ArrowRight|ArrowLeft|ArrowLeft|ArrowRight|ArrowLeft|ArrowLeft|ArrowRight|ArrowLeft|ArrowRight|ArrowLeft|ArrowLeft|ArrowRight|ArrowLeft|ArrowLeft|ArrowLeft|ArrowLeft|ArrowRight|ArrowLeft|ArrowLeft|ArrowLeft|ArrowRight|ArrowLeft|ArrowRight|ArrowLeft|ArrowRight,168,männlich,Deutsch,DFHDFH,25364,ArrowLeft|ArrowRight||ArrowRight|ArrowRight|ArrowLeft|ArrowRight|ArrowRight|ArrowRight|ArrowLeft|ArrowRight|ArrowRight|ArrowLeft|ArrowLeft|ArrowRight|ArrowRight|ArrowLeft|ArrowRight|ArrowLeft|ArrowLeft|ArrowLeft|ArrowRight|ArrowLeft|ArrowRight|ArrowLeft|ArrowLeft|ArrowRight||ArrowLeft|ArrowRight|ArrowRight|ArrowRight|ArrowLeft|ArrowLeft|ArrowRight|ArrowLeft|ArrowLeft|ArrowLeft|ArrowLeft|ArrowRight|ArrowLeft|ArrowLeft|ArrowLeft|ArrowRight|ArrowLeft|ArrowRight|ArrowLeft|ArrowRight,Tue Jul 28 2020 14:29:40 GMT+0200 (Mitteleuropäische Sommerzeit),1595939380331,mixed,12.2258,2,main_experiment
1957,665|697|632|885|638||787|742|760|664|589|858|723|772|834|678|728||771|711|641|747|760|808|556|682|618|758|735|708||780,21,blue|blue|blue|red|blue|red|blue|red|blue|red|blue|red|blue|red|red|red|blue|red|red|red|blue|blue|red|red|red|blue|red|red|red|red|blue|red,War geilo,Z|G|V|M,true|true|true|true,3|7|2|7|3|1|2|4|4|8|3|2|6|8|4|1|7|1|3|7|1|6|2|8|8|1|7|4|3|1|7|4,Abitur,1595940113879,ArrowLeft|ArrowLeft|ArrowRight|ArrowRight|ArrowLeft|ArrowLeft|ArrowRight|ArrowLeft|ArrowRight|ArrowRight|ArrowLeft|ArrowLeft|ArrowRight|ArrowRight|ArrowLeft|ArrowLeft|ArrowLeft|ArrowLeft|ArrowLeft|ArrowRight|ArrowLeft|ArrowRight|ArrowLeft|ArrowRight|ArrowRight|ArrowLeft|ArrowRight|ArrowLeft|ArrowLeft|ArrowLeft|ArrowLeft|ArrowLeft,168,männlich,Deutsch,ZGVM,6365,ArrowLeft|ArrowLeft|ArrowRight|ArrowRight|ArrowLeft||ArrowRight|ArrowLeft|ArrowLeft|ArrowRight|ArrowLeft|ArrowLeft|ArrowRight|ArrowRight|ArrowLeft|ArrowLeft|ArrowLeft||ArrowLeft|ArrowRight|ArrowLeft|ArrowRight|ArrowLeft|ArrowRight|ArrowRight|ArrowLeft|ArrowRight|ArrowLeft|ArrowLeft|ArrowLeft||ArrowRight,Tue Jul 28 2020 14:29:40 GMT+0200 (Mitteleuropäische Sommerzeit),1595939380331,mixed,12.2258,3,main_experiment
1957,649|641|875|669|590|588|683|603|589||635|675|678|599|473|648|564|521|495|512|532|502|510|549|597|711|526|653|582|556|738|636|512||619|759|693|735|804|645,21,blue|blue|blue|blue|blue|blue|blue|blue|blue|blue|blue|blue|blue|blue|blue|blue|blue|blue|blue|blue|blue|blue|blue|blue|blue|blue|blue|blue|blue|blue|blue|blue|blue|blue|blue|blue|blue|blue|blue|blue,War geilo,L|Y|G|R|Z,true|true|true|false|true,6|1|7|6|3|1|4|7|4|7|1|9|7|6|1|7|4|8|1|6|8|3|1|4|9|4|3|7|4|9|2|4|3|7|1|3|8|4|3|6,Abitur,1595940113879,ArrowRight|ArrowLeft|ArrowLeft|ArrowRight|ArrowLeft|ArrowLeft|ArrowRight|ArrowLeft|ArrowRight|ArrowLeft|ArrowLeft|ArrowLeft|ArrowLeft|ArrowRight|ArrowLeft|ArrowLeft|ArrowRight|ArrowRight|ArrowLeft|ArrowRight|ArrowRight|ArrowLeft|ArrowLeft|ArrowRight|ArrowLeft|ArrowRight|ArrowLeft|ArrowLeft|ArrowRight|ArrowLeft|ArrowRight|ArrowRight|ArrowLeft|ArrowLeft|ArrowLeft|ArrowLeft|ArrowRight|ArrowRight|ArrowLeft|ArrowRight,168,männlich,Deutsch,LYGLZ,13036,ArrowRight|ArrowLeft|ArrowLeft|ArrowRight|ArrowLeft|ArrowLeft|ArrowRight|ArrowLeft|ArrowLeft||ArrowLeft|ArrowLeft|ArrowLeft|ArrowRight|ArrowLeft|ArrowLeft|ArrowRight|ArrowRight|ArrowLeft|ArrowRight|ArrowRight|ArrowLeft|ArrowLeft|ArrowRight|ArrowLeft|ArrowRight|ArrowLeft|ArrowLeft|ArrowRight|ArrowLeft|ArrowRight|ArrowRight|ArrowLeft||ArrowLeft|ArrowLeft|ArrowRight|ArrowLeft|ArrowLeft|ArrowRight,Tue Jul 28 2020 14:29:40 GMT+0200 (Mitteleuropäische Sommerzeit),1595939380331,parity,12.2258,4,main_experiment
1957,549|438|434|418|479|468|502|420|569|417|493|485|514|465|504|611|640|389|575|543|800|587|670|630|731|487|551|534|549|560|596|502|623|762|589|583|567|568|615|542,21,red|red|red|red|red|red|red|red|red|red|red|red|red|red|red|red|red|red|red|red|red|red|red|red|red|red|red|red|red|red|red|red|red|red|red|red|red|red|red|red,War geilo,C|Y|V|J|R,true|true|true|true|true,3|6|3|6|1|4|8|1|8|6|8|4|8|4|3|7|6|3|2|4|3|6|7|9|6|9|7|8|1|2|6|1|8|7|2|3|7|4|9|4,Abitur,1595940113879,ArrowLeft|ArrowRight|ArrowLeft|ArrowRight|ArrowLeft|ArrowLeft|ArrowRight|ArrowLeft|ArrowRight|ArrowRight|ArrowRight|ArrowLeft|ArrowRight|ArrowLeft|ArrowLeft|ArrowRight|ArrowRight|ArrowLeft|ArrowLeft|ArrowLeft|ArrowLeft|ArrowRight|ArrowRight|ArrowRight|ArrowRight|ArrowRight|ArrowRight|ArrowRight|ArrowLeft|ArrowLeft|ArrowRight|ArrowLeft|ArrowRight|ArrowRight|ArrowLeft|ArrowLeft|ArrowRight|ArrowLeft|ArrowRight|ArrowLeft,168,männlich,Deutsch,CYVJR,9106,ArrowLeft|ArrowRight|ArrowLeft|ArrowRight|ArrowLeft|ArrowLeft|ArrowRight|ArrowLeft|ArrowRight|ArrowLeft|ArrowRight|ArrowLeft|ArrowRight|ArrowLeft|ArrowLeft|ArrowLeft|ArrowRight|ArrowLeft|ArrowLeft|ArrowLeft|ArrowLeft|ArrowRight|ArrowRight|ArrowRight|ArrowRight|ArrowRight|ArrowRight|ArrowRight|ArrowLeft|ArrowLeft|ArrowRight|ArrowLeft|ArrowLeft|ArrowLeft|ArrowLeft|ArrowLeft|ArrowRight|ArrowLeft|ArrowRight|ArrowLeft,Tue Jul 28 2020 14:29:40 GMT+0200 (Mitteleuropäische Sommerzeit),1595939380331,magnitude,12.2258,5,main_experiment
1957,802|564|624|616|615|521|606|715|462|564|881|753|629|726|781|683|702|687|620|704|686|598|618|661|638|710|598|837|674|599|726|677,21,blue|blue|blue|blue|blue|blue|blue|blue|blue|blue|blue|blue|blue|blue|blue|blue|blue|blue|blue|blue|blue|blue|blue|blue|blue|blue|blue|blue|blue|blue|blue|blue,War geilo,X|W|M|R,true|true|true|true,7|2|8|6|8|1|8|4|1|9|8|4|1|7|4|7|7|8|7|8|6|7|8|9|9|2|3|2|8|1|9|2,Abitur,1595940113879,ArrowLeft|ArrowRight|ArrowRight|ArrowRight|ArrowRight|ArrowLeft|ArrowRight|ArrowRight|ArrowLeft|ArrowLeft|ArrowRight|ArrowRight|ArrowLeft|ArrowLeft|ArrowRight|ArrowLeft|ArrowLeft|ArrowRight|ArrowLeft|ArrowRight|ArrowRight|ArrowLeft|ArrowRight|ArrowLeft|ArrowLeft|ArrowRight|ArrowLeft|ArrowRight|ArrowRight|ArrowLeft|ArrowLeft|ArrowRight,168,männlich,Deutsch,XWMR,5587,ArrowLeft|ArrowRight|ArrowRight|ArrowRight|ArrowRight|ArrowLeft|ArrowRight|ArrowRight|ArrowLeft|ArrowRight|ArrowRight|ArrowRight|ArrowLeft|ArrowLeft|ArrowRight|ArrowLeft|ArrowRight|ArrowRight|ArrowLeft|ArrowRight|ArrowRight|ArrowLeft|ArrowRight|ArrowLeft|ArrowLeft|ArrowRight|ArrowLeft|ArrowLeft|ArrowRight|ArrowLeft|ArrowLeft|ArrowRight,Tue Jul 28 2020 14:29:40 GMT+0200 (Mitteleuropäische Sommerzeit),1595939380331,parity,12.2258,6,main_experiment
1957,769|629|673|647|779|676|578|670|618|762|661|790|773|679|881|790|636|701|563|661|767|776|791|812|550|756|618|825|661|694|775|752|496|701|636|572|740|613|754|789,21,blue|blue|red|red|blue|blue|red|red|blue|red|blue|red|blue|blue|red|red|blue|blue|red|blue|red|blue|red|red|blue|red|red|red|red|red|red|red|red|red|red|red|blue|blue|blue|red,War geilo,J|L|C|S|P,true|true|true|true|true,6|9|7|2|1|4|3|1|6|8|1|7|8|7|1|2|9|4|2|9|3|2|9|8|3|9|1|3|6|2|4|7|1|8|3|6|4|3|9|2,Abitur,1595940113879,ArrowRight|ArrowLeft|ArrowRight|ArrowLeft|ArrowLeft|ArrowRight|ArrowLeft|ArrowLeft|ArrowRight|ArrowRight|ArrowLeft|ArrowRight|ArrowRight|ArrowLeft|ArrowLeft|ArrowLeft|ArrowLeft|ArrowRight|ArrowLeft|ArrowLeft|ArrowLeft|ArrowRight|ArrowRight|ArrowRight|ArrowLeft|ArrowRight|ArrowLeft|ArrowLeft|ArrowRight|ArrowLeft|ArrowLeft|ArrowRight|ArrowLeft|ArrowRight|ArrowLeft|ArrowRight|ArrowRight|ArrowLeft|ArrowLeft|ArrowLeft,168,männlich,Deutsch,JLCSP,8488,ArrowRight|ArrowLeft|ArrowLeft|ArrowLeft|ArrowLeft|ArrowRight|ArrowLeft|ArrowLeft|ArrowRight|ArrowRight|ArrowLeft|ArrowRight|ArrowRight|ArrowLeft|ArrowLeft|ArrowLeft|ArrowLeft|ArrowRight|ArrowLeft|ArrowLeft|ArrowRight|ArrowRight|ArrowRight|ArrowRight|ArrowLeft|ArrowRight|ArrowLeft|ArrowLeft|ArrowRight|ArrowLeft|ArrowLeft|ArrowRight|ArrowLeft|ArrowRight|ArrowLeft|ArrowRight|ArrowRight|ArrowLeft|ArrowLeft|ArrowLeft,Tue Jul 28 2020 14:29:40 GMT+0200 (Mitteleuropäische Sommerzeit),1595939380331,mixed,12.2258,7,main_experiment
1957,637|635||452|485|520|667|497|529|451|524|407|396|461|695|483|468|483|528|496|673|447|526|648|642|528|803|503|552|592|663|573,21,red|red|red|red|red|red|red|red|red|red|red|red|red|red|red|red|red|red|red|red|red|red|red|red|red|red|red|red|red|red|red|red,War geilo,Q|S|G|Y,true|true|true|true,9|7|3|1|8|2|6|9|2|1|2|1|2|1|4|3|8|1|6|2|8|2|1|7|7|6|9|2|1|9|4|2,Abitur,1595940113879,ArrowRight|ArrowRight|ArrowLeft|ArrowLeft|ArrowRight|ArrowLeft|ArrowRight|ArrowRight|ArrowLeft|ArrowLeft|ArrowLeft|ArrowLeft|ArrowLeft|ArrowLeft|ArrowLeft|ArrowLeft|ArrowRight|ArrowLeft|ArrowRight|ArrowLeft|ArrowRight|ArrowLeft|ArrowLeft|ArrowRight|ArrowRight|ArrowRight|ArrowRight|ArrowLeft|ArrowLeft|ArrowRight|ArrowLeft|ArrowLeft,168,männlich,Deutsch,QSGY,5675,ArrowLeft|ArrowLeft||ArrowLeft|ArrowRight|ArrowLeft|ArrowRight|ArrowRight|ArrowLeft|ArrowLeft|ArrowLeft|ArrowLeft|ArrowLeft|ArrowLeft|ArrowLeft|ArrowLeft|ArrowRight|ArrowLeft|ArrowRight|ArrowLeft|ArrowRight|ArrowLeft|ArrowLeft|ArrowLeft|ArrowRight|ArrowLeft|ArrowRight|ArrowLeft|ArrowLeft|ArrowRight|ArrowLeft|ArrowLeft,Tue Jul 28 2020 14:29:40 GMT+0200 (Mitteleuropäische Sommerzeit),1595939380331,magnitude,12.2258,8,main_experiment
